acc_x_0,acc_x_1,acc_x_2,acc_x_3,acc_x_4,acc_x_5,acc_x_6,acc_x_7,acc_x_8,acc_x_9,acc_x_10,acc_x_11,acc_x_12,acc_x_13,acc_x_14,acc_x_15,acc_x_16,acc_x_17,acc_x_18,acc_x_19,acc_x_20,acc_x_21,acc_x_22,acc_x_23,acc_x_24,acc_x_25,acc_x_26,acc_x_27,acc_x_28,acc_x_29,acc_x_30,acc_x_31,acc_x_32,acc_x_33,acc_x_34,acc_x_35,acc_x_36,acc_x_37,acc_x_38,acc_x_39,acc_x_40,acc_x_41,acc_x_42,acc_x_43,acc_x_44,acc_x_45,acc_x_46,acc_x_47,acc_y_0,acc_y_1,acc_y_2,acc_y_3,acc_y_4,acc_y_5,acc_y_6,acc_y_7,acc_y_8,acc_y_9,acc_y_10,acc_y_11,acc_y_12,acc_y_13,acc_y_14,acc_y_15,acc_y_16,acc_y_17,acc_y_18,acc_y_19,acc_y_20,acc_y_21,acc_y_22,acc_y_23,acc_y_24,acc_y_25,acc_y_26,acc_y_27,acc_y_28,acc_y_29,acc_y_30,acc_y_31,acc_y_32,acc_y_33,acc_y_34,acc_y_35,acc_y_36,acc_y_37,acc_y_38,acc_y_39,acc_y_40,acc_y_41,acc_y_42,acc_y_43,acc_y_44,acc_y_45,acc_y_46,acc_y_47,acc_z_0,acc_z_1,acc_z_2,acc_z_3,acc_z_4,acc_z_5,acc_z_6,acc_z_7,acc_z_8,acc_z_9,acc_z_10,acc_z_11,acc_z_12,acc_z_13,acc_z_14,acc_z_15,acc_z_16,acc_z_17,acc_z_18,acc_z_19,acc_z_20,acc_z_21,acc_z_22,acc_z_23,acc_z_24,acc_z_25,acc_z_26,acc_z_27,acc_z_28,acc_z_29,acc_z_30,acc_z_31,acc_z_32,acc_z_33,acc_z_34,acc_z_35,acc_z_36,acc_z_37,acc_z_38,acc_z_39,acc_z_40,acc_z_41,acc_z_42,acc_z_43,acc_z_44,acc_z_45,acc_z_46,acc_z_47,val
-0.03125,-0.0625,-0.0625,0.0,0.0625,0.0625,0.0,0.0,-0.09375,-0.125,-0.15625,-0.15625,-0.09375,0.0,0.03125,0.09375,0.03125,0.0,-0.03125,-0.09375,-0.125,-0.09375,0.0,0.0625,0.6875,-0.03125,-0.375,0.25,-0.875,2.28125,-2.6875,-2.46875,1.5625,-0.28125,-2.28125,-2.28125,-4.90625,-4.65625,-6.875,-4.8125,-1.90625,-0.5625,-1.65625,0.03125,0.625,7.03125,5.03125,-9.5625,-0.40625,-0.375,-0.34375,-0.375,-0.4375,-0.4375,-0.375,-0.34375,-0.40625,-0.40625,-0.40625,-0.375,-0.375,-0.375,-0.375,-0.3125,-0.3125,-0.34375,-0.375,-0.40625,-0.40625,-0.40625,-0.4375,-0.46875,-0.1875,-2.5625,-2.53125,1.5,1.25,7.46875,-16.9375,-6.34375,1.59375,-3.65625,-1.1875,0.9375,6.375,5.53125,2.5625,3.21875,2.34375,0.78125,1.15625,0.96875,-0.375,1.84375,0.375,-12.5625,31.0,31.0,30.9375,31.03125,31.09375,30.96875,30.90625,31.0,31.0,30.90625,30.96875,30.96875,31.0,30.9375,30.9375,30.96875,30.96875,30.96875,30.96875,31.0,31.0,31.0,30.96875,31.0,30.59375,31.125,31.375,30.96875,30.96875,31.71875,39.09375,34.59375,35.15625,34.46875,33.75,27.375,33.0,36.8125,39.90625,37.0,32.15625,29.03125,31.65625,39.25,39.6875,33.09375,23.875,20.15625,0.0
-0.0625,-0.0625,0.0,0.0625,0.0625,0.0,0.0,-0.09375,-0.125,-0.15625,-0.15625,-0.09375,0.0,0.03125,0.09375,0.03125,0.0,-0.03125,-0.09375,-0.125,-0.09375,0.0,0.0625,0.6875,-0.03125,-0.375,0.25,-0.875,2.28125,-2.6875,-2.46875,1.5625,-0.28125,-2.28125,-2.28125,-4.90625,-4.65625,-6.875,-4.8125,-1.90625,-0.5625,-1.65625,0.03125,0.625,7.03125,5.03125,-9.5625,-9.0625,-0.375,-0.34375,-0.375,-0.4375,-0.4375,-0.375,-0.34375,-0.40625,-0.40625,-0.40625,-0.375,-0.375,-0.375,-0.375,-0.3125,-0.3125,-0.34375,-0.375,-0.40625,-0.40625,-0.40625,-0.4375,-0.46875,-0.1875,-2.5625,-2.53125,1.5,1.25,7.46875,-16.9375,-6.34375,1.59375,-3.65625,-1.1875,0.9375,6.375,5.53125,2.5625,3.21875,2.34375,0.78125,1.15625,0.96875,-0.375,1.84375,0.375,-12.5625,-8.59375,31.0,30.9375,31.03125,31.09375,30.96875,30.90625,31.0,31.0,30.90625,30.96875,30.96875,31.0,30.9375,30.9375,30.96875,30.96875,30.96875,30.96875,31.0,31.0,31.0,30.96875,31.0,30.59375,31.125,31.375,30.96875,30.96875,31.71875,39.09375,34.59375,35.15625,34.46875,33.75,27.375,33.0,36.8125,39.90625,37.0,32.15625,29.03125,31.65625,39.25,39.6875,33.09375,23.875,20.15625,26.375,0.0
-0.0625,0.0,0.0625,0.0625,0.0,0.0,-0.09375,-0.125,-0.15625,-0.15625,-0.09375,0.0,0.03125,0.09375,0.03125,0.0,-0.03125,-0.09375,-0.125,-0.09375,0.0,0.0625,0.6875,-0.03125,-0.375,0.25,-0.875,2.28125,-2.6875,-2.46875,1.5625,-0.28125,-2.28125,-2.28125,-4.90625,-4.65625,-6.875,-4.8125,-1.90625,-0.5625,-1.65625,0.03125,0.625,7.03125,5.03125,-9.5625,-9.0625,-5.40625,-0.34375,-0.375,-0.4375,-0.4375,-0.375,-0.34375,-0.40625,-0.40625,-0.40625,-0.375,-0.375,-0.375,-0.375,-0.3125,-0.3125,-0.34375,-0.375,-0.40625,-0.40625,-0.40625,-0.4375,-0.46875,-0.1875,-2.5625,-2.53125,1.5,1.25,7.46875,-16.9375,-6.34375,1.59375,-3.65625,-1.1875,0.9375,6.375,5.53125,2.5625,3.21875,2.34375,0.78125,1.15625,0.96875,-0.375,1.84375,0.375,-12.5625,-8.59375,-3.0625,30.9375,31.03125,31.09375,30.96875,30.90625,31.0,31.0,30.90625,30.96875,30.96875,31.0,30.9375,30.9375,30.96875,30.96875,30.96875,30.96875,31.0,31.0,31.0,30.96875,31.0,30.59375,31.125,31.375,30.96875,30.96875,31.71875,39.09375,34.59375,35.15625,34.46875,33.75,27.375,33.0,36.8125,39.90625,37.0,32.15625,29.03125,31.65625,39.25,39.6875,33.09375,23.875,20.15625,26.375,31.25,0.0
0.0,0.0625,0.0625,0.0,0.0,-0.09375,-0.125,-0.15625,-0.15625,-0.09375,0.0,0.03125,0.09375,0.03125,0.0,-0.03125,-0.09375,-0.125,-0.09375,0.0,0.0625,0.6875,-0.03125,-0.375,0.25,-0.875,2.28125,-2.6875,-2.46875,1.5625,-0.28125,-2.28125,-2.28125,-4.90625,-4.65625,-6.875,-4.8125,-1.90625,-0.5625,-1.65625,0.03125,0.625,7.03125,5.03125,-9.5625,-9.0625,-5.40625,-1.65625,-0.375,-0.4375,-0.4375,-0.375,-0.34375,-0.40625,-0.40625,-0.40625,-0.375,-0.375,-0.375,-0.375,-0.3125,-0.3125,-0.34375,-0.375,-0.40625,-0.40625,-0.40625,-0.4375,-0.46875,-0.1875,-2.5625,-2.53125,1.5,1.25,7.46875,-16.9375,-6.34375,1.59375,-3.65625,-1.1875,0.9375,6.375,5.53125,2.5625,3.21875,2.34375,0.78125,1.15625,0.96875,-0.375,1.84375,0.375,-12.5625,-8.59375,-3.0625,-2.375,31.03125,31.09375,30.96875,30.90625,31.0,31.0,30.90625,30.96875,30.96875,31.0,30.9375,30.9375,30.96875,30.96875,30.96875,30.96875,31.0,31.0,31.0,30.96875,31.0,30.59375,31.125,31.375,30.96875,30.96875,31.71875,39.09375,34.59375,35.15625,34.46875,33.75,27.375,33.0,36.8125,39.90625,37.0,32.15625,29.03125,31.65625,39.25,39.6875,33.09375,23.875,20.15625,26.375,31.25,28.71875,0.0
0.0625,0.0625,0.0,0.0,-0.09375,-0.125,-0.15625,-0.15625,-0.09375,0.0,0.03125,0.09375,0.03125,0.0,-0.03125,-0.09375,-0.125,-0.09375,0.0,0.0625,0.6875,-0.03125,-0.375,0.25,-0.875,2.28125,-2.6875,-2.46875,1.5625,-0.28125,-2.28125,-2.28125,-4.90625,-4.65625,-6.875,-4.8125,-1.90625,-0.5625,-1.65625,0.03125,0.625,7.03125,5.03125,-9.5625,-9.0625,-5.40625,-1.65625,-5.125,-0.4375,-0.4375,-0.375,-0.34375,-0.40625,-0.40625,-0.40625,-0.375,-0.375,-0.375,-0.375,-0.3125,-0.3125,-0.34375,-0.375,-0.40625,-0.40625,-0.40625,-0.4375,-0.46875,-0.1875,-2.5625,-2.53125,1.5,1.25,7.46875,-16.9375,-6.34375,1.59375,-3.65625,-1.1875,0.9375,6.375,5.53125,2.5625,3.21875,2.34375,0.78125,1.15625,0.96875,-0.375,1.84375,0.375,-12.5625,-8.59375,-3.0625,-2.375,-6.375,31.09375,30.96875,30.90625,31.0,31.0,30.90625,30.96875,30.96875,31.0,30.9375,30.9375,30.96875,30.96875,30.96875,30.96875,31.0,31.0,31.0,30.96875,31.0,30.59375,31.125,31.375,30.96875,30.96875,31.71875,39.09375,34.59375,35.15625,34.46875,33.75,27.375,33.0,36.8125,39.90625,37.0,32.15625,29.03125,31.65625,39.25,39.6875,33.09375,23.875,20.15625,26.375,31.25,28.71875,28.4375,0.0
0.0625,0.0,0.0,-0.09375,-0.125,-0.15625,-0.15625,-0.09375,0.0,0.03125,0.09375,0.03125,0.0,-0.03125,-0.09375,-0.125,-0.09375,0.0,0.0625,0.6875,-0.03125,-0.375,0.25,-0.875,2.28125,-2.6875,-2.46875,1.5625,-0.28125,-2.28125,-2.28125,-4.90625,-4.65625,-6.875,-4.8125,-1.90625,-0.5625,-1.65625,0.03125,0.625,7.03125,5.03125,-9.5625,-9.0625,-5.40625,-1.65625,-5.125,-1.1875,-0.4375,-0.375,-0.34375,-0.40625,-0.40625,-0.40625,-0.375,-0.375,-0.375,-0.375,-0.3125,-0.3125,-0.34375,-0.375,-0.40625,-0.40625,-0.40625,-0.4375,-0.46875,-0.1875,-2.5625,-2.53125,1.5,1.25,7.46875,-16.9375,-6.34375,1.59375,-3.65625,-1.1875,0.9375,6.375,5.53125,2.5625,3.21875,2.34375,0.78125,1.15625,0.96875,-0.375,1.84375,0.375,-12.5625,-8.59375,-3.0625,-2.375,-6.375,-4.625,30.96875,30.90625,31.0,31.0,30.90625,30.96875,30.96875,31.0,30.9375,30.9375,30.96875,30.96875,30.96875,30.96875,31.0,31.0,31.0,30.96875,31.0,30.59375,31.125,31.375,30.96875,30.96875,31.71875,39.09375,34.59375,35.15625,34.46875,33.75,27.375,33.0,36.8125,39.90625,37.0,32.15625,29.03125,31.65625,39.25,39.6875,33.09375,23.875,20.15625,26.375,31.25,28.71875,28.4375,29.21875,0.0
0.0,0.0,-0.09375,-0.125,-0.15625,-0.15625,-0.09375,0.0,0.03125,0.09375,0.03125,0.0,-0.03125,-0.09375,-0.125,-0.09375,0.0,0.0625,0.6875,-0.03125,-0.375,0.25,-0.875,2.28125,-2.6875,-2.46875,1.5625,-0.28125,-2.28125,-2.28125,-4.90625,-4.65625,-6.875,-4.8125,-1.90625,-0.5625,-1.65625,0.03125,0.625,7.03125,5.03125,-9.5625,-9.0625,-5.40625,-1.65625,-5.125,-1.1875,-1.71875,-0.375,-0.34375,-0.40625,-0.40625,-0.40625,-0.375,-0.375,-0.375,-0.375,-0.3125,-0.3125,-0.34375,-0.375,-0.40625,-0.40625,-0.40625,-0.4375,-0.46875,-0.1875,-2.5625,-2.53125,1.5,1.25,7.46875,-16.9375,-6.34375,1.59375,-3.65625,-1.1875,0.9375,6.375,5.53125,2.5625,3.21875,2.34375,0.78125,1.15625,0.96875,-0.375,1.84375,0.375,-12.5625,-8.59375,-3.0625,-2.375,-6.375,-4.625,-9.28125,30.90625,31.0,31.0,30.90625,30.96875,30.96875,31.0,30.9375,30.9375,30.96875,30.96875,30.96875,30.96875,31.0,31.0,31.0,30.96875,31.0,30.59375,31.125,31.375,30.96875,30.96875,31.71875,39.09375,34.59375,35.15625,34.46875,33.75,27.375,33.0,36.8125,39.90625,37.0,32.15625,29.03125,31.65625,39.25,39.6875,33.09375,23.875,20.15625,26.375,31.25,28.71875,28.4375,29.21875,28.84375,0.0
0.0,-0.09375,-0.125,-0.15625,-0.15625,-0.09375,0.0,0.03125,0.09375,0.03125,0.0,-0.03125,-0.09375,-0.125,-0.09375,0.0,0.0625,0.6875,-0.03125,-0.375,0.25,-0.875,2.28125,-2.6875,-2.46875,1.5625,-0.28125,-2.28125,-2.28125,-4.90625,-4.65625,-6.875,-4.8125,-1.90625,-0.5625,-1.65625,0.03125,0.625,7.03125,5.03125,-9.5625,-9.0625,-5.40625,-1.65625,-5.125,-1.1875,-1.71875,-0.625,-0.34375,-0.40625,-0.40625,-0.40625,-0.375,-0.375,-0.375,-0.375,-0.3125,-0.3125,-0.34375,-0.375,-0.40625,-0.40625,-0.40625,-0.4375,-0.46875,-0.1875,-2.5625,-2.53125,1.5,1.25,7.46875,-16.9375,-6.34375,1.59375,-3.65625,-1.1875,0.9375,6.375,5.53125,2.5625,3.21875,2.34375,0.78125,1.15625,0.96875,-0.375,1.84375,0.375,-12.5625,-8.59375,-3.0625,-2.375,-6.375,-4.625,-9.28125,-10.125,31.0,31.0,30.90625,30.96875,30.96875,31.0,30.9375,30.9375,30.96875,30.96875,30.96875,30.96875,31.0,31.0,31.0,30.96875,31.0,30.59375,31.125,31.375,30.96875,30.96875,31.71875,39.09375,34.59375,35.15625,34.46875,33.75,27.375,33.0,36.8125,39.90625,37.0,32.15625,29.03125,31.65625,39.25,39.6875,33.09375,23.875,20.15625,26.375,31.25,28.71875,28.4375,29.21875,28.84375,31.875,0.0
-0.09375,-0.125,-0.15625,-0.15625,-0.09375,0.0,0.03125,0.09375,0.03125,0.0,-0.03125,-0.09375,-0.125,-0.09375,0.0,0.0625,0.6875,-0.03125,-0.375,0.25,-0.875,2.28125,-2.6875,-2.46875,1.5625,-0.28125,-2.28125,-2.28125,-4.90625,-4.65625,-6.875,-4.8125,-1.90625,-0.5625,-1.65625,0.03125,0.625,7.03125,5.03125,-9.5625,-9.0625,-5.40625,-1.65625,-5.125,-1.1875,-1.71875,-0.625,-0.5625,-0.40625,-0.40625,-0.40625,-0.375,-0.375,-0.375,-0.375,-0.3125,-0.3125,-0.34375,-0.375,-0.40625,-0.40625,-0.40625,-0.4375,-0.46875,-0.1875,-2.5625,-2.53125,1.5,1.25,7.46875,-16.9375,-6.34375,1.59375,-3.65625,-1.1875,0.9375,6.375,5.53125,2.5625,3.21875,2.34375,0.78125,1.15625,0.96875,-0.375,1.84375,0.375,-12.5625,-8.59375,-3.0625,-2.375,-6.375,-4.625,-9.28125,-10.125,-10.71875,31.0,30.90625,30.96875,30.96875,31.0,30.9375,30.9375,30.96875,30.96875,30.96875,30.96875,31.0,31.0,31.0,30.96875,31.0,30.59375,31.125,31.375,30.96875,30.96875,31.71875,39.09375,34.59375,35.15625,34.46875,33.75,27.375,33.0,36.8125,39.90625,37.0,32.15625,29.03125,31.65625,39.25,39.6875,33.09375,23.875,20.15625,26.375,31.25,28.71875,28.4375,29.21875,28.84375,31.875,31.28125,0.0
-0.125,-0.15625,-0.15625,-0.09375,0.0,0.03125,0.09375,0.03125,0.0,-0.03125,-0.09375,-0.125,-0.09375,0.0,0.0625,0.6875,-0.03125,-0.375,0.25,-0.875,2.28125,-2.6875,-2.46875,1.5625,-0.28125,-2.28125,-2.28125,-4.90625,-4.65625,-6.875,-4.8125,-1.90625,-0.5625,-1.65625,0.03125,0.625,7.03125,5.03125,-9.5625,-9.0625,-5.40625,-1.65625,-5.125,-1.1875,-1.71875,-0.625,-0.5625,-0.21875,-0.40625,-0.40625,-0.375,-0.375,-0.375,-0.375,-0.3125,-0.3125,-0.34375,-0.375,-0.40625,-0.40625,-0.40625,-0.4375,-0.46875,-0.1875,-2.5625,-2.53125,1.5,1.25,7.46875,-16.9375,-6.34375,1.59375,-3.65625,-1.1875,0.9375,6.375,5.53125,2.5625,3.21875,2.34375,0.78125,1.15625,0.96875,-0.375,1.84375,0.375,-12.5625,-8.59375,-3.0625,-2.375,-6.375,-4.625,-9.28125,-10.125,-10.71875,-9.6875,30.90625,30.96875,30.96875,31.0,30.9375,30.9375,30.96875,30.96875,30.96875,30.96875,31.0,31.0,31.0,30.96875,31.0,30.59375,31.125,31.375,30.96875,30.96875,31.71875,39.09375,34.59375,35.15625,34.46875,33.75,27.375,33.0,36.8125,39.90625,37.0,32.15625,29.03125,31.65625,39.25,39.6875,33.09375,23.875,20.15625,26.375,31.25,28.71875,28.4375,29.21875,28.84375,31.875,31.28125,31.46875,0.0
-0.15625,-0.15625,-0.09375,0.0,0.03125,0.09375,0.03125,0.0,-0.03125,-0.09375,-0.125,-0.09375,0.0,0.0625,0.6875,-0.03125,-0.375,0.25,-0.875,2.28125,-2.6875,-2.46875,1.5625,-0.28125,-2.28125,-2.28125,-4.90625,-4.65625,-6.875,-4.8125,-1.90625,-0.5625,-1.65625,0.03125,0.625,7.03125,5.03125,-9.5625,-9.0625,-5.40625,-1.65625,-5.125,-1.1875,-1.71875,-0.625,-0.5625,-0.21875,-0.125,-0.40625,-0.375,-0.375,-0.375,-0.375,-0.3125,-0.3125,-0.34375,-0.375,-0.40625,-0.40625,-0.40625,-0.4375,-0.46875,-0.1875,-2.5625,-2.53125,1.5,1.25,7.46875,-16.9375,-6.34375,1.59375,-3.65625,-1.1875,0.9375,6.375,5.53125,2.5625,3.21875,2.34375,0.78125,1.15625,0.96875,-0.375,1.84375,0.375,-12.5625,-8.59375,-3.0625,-2.375,-6.375,-4.625,-9.28125,-10.125,-10.71875,-9.6875,-10.09375,30.96875,30.96875,31.0,30.9375,30.9375,30.96875,30.96875,30.96875,30.96875,31.0,31.0,31.0,30.96875,31.0,30.59375,31.125,31.375,30.96875,30.96875,31.71875,39.09375,34.59375,35.15625,34.46875,33.75,27.375,33.0,36.8125,39.90625,37.0,32.15625,29.03125,31.65625,39.25,39.6875,33.09375,23.875,20.15625,26.375,31.25,28.71875,28.4375,29.21875,28.84375,31.875,31.28125,31.46875,33.09375,0.0
-0.15625,-0.09375,0.0,0.03125,0.09375,0.03125,0.0,-0.03125,-0.09375,-0.125,-0.09375,0.0,0.0625,0.6875,-0.03125,-0.375,0.25,-0.875,2.28125,-2.6875,-2.46875,1.5625,-0.28125,-2.28125,-2.28125,-4.90625,-4.65625,-6.875,-4.8125,-1.90625,-0.5625,-1.65625,0.03125,0.625,7.03125,5.03125,-9.5625,-9.0625,-5.40625,-1.65625,-5.125,-1.1875,-1.71875,-0.625,-0.5625,-0.21875,-0.125,1.5,-0.375,-0.375,-0.375,-0.375,-0.3125,-0.3125,-0.34375,-0.375,-0.40625,-0.40625,-0.40625,-0.4375,-0.46875,-0.1875,-2.5625,-2.53125,1.5,1.25,7.46875,-16.9375,-6.34375,1.59375,-3.65625,-1.1875,0.9375,6.375,5.53125,2.5625,3.21875,2.34375,0.78125,1.15625,0.96875,-0.375,1.84375,0.375,-12.5625,-8.59375,-3.0625,-2.375,-6.375,-4.625,-9.28125,-10.125,-10.71875,-9.6875,-10.09375,-11.0625,30.96875,31.0,30.9375,30.9375,30.96875,30.96875,30.96875,30.96875,31.0,31.0,31.0,30.96875,31.0,30.59375,31.125,31.375,30.96875,30.96875,31.71875,39.09375,34.59375,35.15625,34.46875,33.75,27.375,33.0,36.8125,39.90625,37.0,32.15625,29.03125,31.65625,39.25,39.6875,33.09375,23.875,20.15625,26.375,31.25,28.71875,28.4375,29.21875,28.84375,31.875,31.28125,31.46875,33.09375,30.65625,0.0
-0.09375,0.0,0.03125,0.09375,0.03125,0.0,-0.03125,-0.09375,-0.125,-0.09375,0.0,0.0625,0.6875,-0.03125,-0.375,0.25,-0.875,2.28125,-2.6875,-2.46875,1.5625,-0.28125,-2.28125,-2.28125,-4.90625,-4.65625,-6.875,-4.8125,-1.90625,-0.5625,-1.65625,0.03125,0.625,7.03125,5.03125,-9.5625,-9.0625,-5.40625,-1.65625,-5.125,-1.1875,-1.71875,-0.625,-0.5625,-0.21875,-0.125,1.5,4.96875,-0.375,-0.375,-0.375,-0.3125,-0.3125,-0.34375,-0.375,-0.40625,-0.40625,-0.40625,-0.4375,-0.46875,-0.1875,-2.5625,-2.53125,1.5,1.25,7.46875,-16.9375,-6.34375,1.59375,-3.65625,-1.1875,0.9375,6.375,5.53125,2.5625,3.21875,2.34375,0.78125,1.15625,0.96875,-0.375,1.84375,0.375,-12.5625,-8.59375,-3.0625,-2.375,-6.375,-4.625,-9.28125,-10.125,-10.71875,-9.6875,-10.09375,-11.0625,-10.46875,31.0,30.9375,30.9375,30.96875,30.96875,30.96875,30.96875,31.0,31.0,31.0,30.96875,31.0,30.59375,31.125,31.375,30.96875,30.96875,31.71875,39.09375,34.59375,35.15625,34.46875,33.75,27.375,33.0,36.8125,39.90625,37.0,32.15625,29.03125,31.65625,39.25,39.6875,33.09375,23.875,20.15625,26.375,31.25,28.71875,28.4375,29.21875,28.84375,31.875,31.28125,31.46875,33.09375,30.65625,28.5,0.0
0.0,0.03125,0.09375,0.03125,0.0,-0.03125,-0.09375,-0.125,-0.09375,0.0,0.0625,0.6875,-0.03125,-0.375,0.25,-0.875,2.28125,-2.6875,-2.46875,1.5625,-0.28125,-2.28125,-2.28125,-4.90625,-4.65625,-6.875,-4.8125,-1.90625,-0.5625,-1.65625,0.03125,0.625,7.03125,5.03125,-9.5625,-9.0625,-5.40625,-1.65625,-5.125,-1.1875,-1.71875,-0.625,-0.5625,-0.21875,-0.125,1.5,4.96875,-0.65625,-0.375,-0.375,-0.3125,-0.3125,-0.34375,-0.375,-0.40625,-0.40625,-0.40625,-0.4375,-0.46875,-0.1875,-2.5625,-2.53125,1.5,1.25,7.46875,-16.9375,-6.34375,1.59375,-3.65625,-1.1875,0.9375,6.375,5.53125,2.5625,3.21875,2.34375,0.78125,1.15625,0.96875,-0.375,1.84375,0.375,-12.5625,-8.59375,-3.0625,-2.375,-6.375,-4.625,-9.28125,-10.125,-10.71875,-9.6875,-10.09375,-11.0625,-10.46875,-8.1875,30.9375,30.9375,30.96875,30.96875,30.96875,30.96875,31.0,31.0,31.0,30.96875,31.0,30.59375,31.125,31.375,30.96875,30.96875,31.71875,39.09375,34.59375,35.15625,34.46875,33.75,27.375,33.0,36.8125,39.90625,37.0,32.15625,29.03125,31.65625,39.25,39.6875,33.09375,23.875,20.15625,26.375,31.25,28.71875,28.4375,29.21875,28.84375,31.875,31.28125,31.46875,33.09375,30.65625,28.5,29.03125,0.0
0.03125,0.09375,0.03125,0.0,-0.03125,-0.09375,-0.125,-0.09375,0.0,0.0625,0.6875,-0.03125,-0.375,0.25,-0.875,2.28125,-2.6875,-2.46875,1.5625,-0.28125,-2.28125,-2.28125,-4.90625,-4.65625,-6.875,-4.8125,-1.90625,-0.5625,-1.65625,0.03125,0.625,7.03125,5.03125,-9.5625,-9.0625,-5.40625,-1.65625,-5.125,-1.1875,-1.71875,-0.625,-0.5625,-0.21875,-0.125,1.5,4.96875,-0.65625,0.84375,-0.375,-0.3125,-0.3125,-0.34375,-0.375,-0.40625,-0.40625,-0.40625,-0.4375,-0.46875,-0.1875,-2.5625,-2.53125,1.5,1.25,7.46875,-16.9375,-6.34375,1.59375,-3.65625,-1.1875,0.9375,6.375,5.53125,2.5625,3.21875,2.34375,0.78125,1.15625,0.96875,-0.375,1.84375,0.375,-12.5625,-8.59375,-3.0625,-2.375,-6.375,-4.625,-9.28125,-10.125,-10.71875,-9.6875,-10.09375,-11.0625,-10.46875,-8.1875,-8.34375,30.9375,30.96875,30.96875,30.96875,30.96875,31.0,31.0,31.0,30.96875,31.0,30.59375,31.125,31.375,30.96875,30.96875,31.71875,39.09375,34.59375,35.15625,34.46875,33.75,27.375,33.0,36.8125,39.90625,37.0,32.15625,29.03125,31.65625,39.25,39.6875,33.09375,23.875,20.15625,26.375,31.25,28.71875,28.4375,29.21875,28.84375,31.875,31.28125,31.46875,33.09375,30.65625,28.5,29.03125,28.15625,0.0
0.09375,0.03125,0.0,-0.03125,-0.09375,-0.125,-0.09375,0.0,0.0625,0.6875,-0.03125,-0.375,0.25,-0.875,2.28125,-2.6875,-2.46875,1.5625,-0.28125,-2.28125,-2.28125,-4.90625,-4.65625,-6.875,-4.8125,-1.90625,-0.5625,-1.65625,0.03125,0.625,7.03125,5.03125,-9.5625,-9.0625,-5.40625,-1.65625,-5.125,-1.1875,-1.71875,-0.625,-0.5625,-0.21875,-0.125,1.5,4.96875,-0.65625,0.84375,0.75,-0.3125,-0.3125,-0.34375,-0.375,-0.40625,-0.40625,-0.40625,-0.4375,-0.46875,-0.1875,-2.5625,-2.53125,1.5,1.25,7.46875,-16.9375,-6.34375,1.59375,-3.65625,-1.1875,0.9375,6.375,5.53125,2.5625,3.21875,2.34375,0.78125,1.15625,0.96875,-0.375,1.84375,0.375,-12.5625,-8.59375,-3.0625,-2.375,-6.375,-4.625,-9.28125,-10.125,-10.71875,-9.6875,-10.09375,-11.0625,-10.46875,-8.1875,-8.34375,-9.65625,30.96875,30.96875,30.96875,30.96875,31.0,31.0,31.0,30.96875,31.0,30.59375,31.125,31.375,30.96875,30.96875,31.71875,39.09375,34.59375,35.15625,34.46875,33.75,27.375,33.0,36.8125,39.90625,37.0,32.15625,29.03125,31.65625,39.25,39.6875,33.09375,23.875,20.15625,26.375,31.25,28.71875,28.4375,29.21875,28.84375,31.875,31.28125,31.46875,33.09375,30.65625,28.5,29.03125,28.15625,26.375,0.0
0.03125,0.0,-0.03125,-0.09375,-0.125,-0.09375,0.0,0.0625,0.6875,-0.03125,-0.375,0.25,-0.875,2.28125,-2.6875,-2.46875,1.5625,-0.28125,-2.28125,-2.28125,-4.90625,-4.65625,-6.875,-4.8125,-1.90625,-0.5625,-1.65625,0.03125,0.625,7.03125,5.03125,-9.5625,-9.0625,-5.40625,-1.65625,-5.125,-1.1875,-1.71875,-0.625,-0.5625,-0.21875,-0.125,1.5,4.96875,-0.65625,0.84375,0.75,0.78125,-0.3125,-0.34375,-0.375,-0.40625,-0.40625,-0.40625,-0.4375,-0.46875,-0.1875,-2.5625,-2.53125,1.5,1.25,7.46875,-16.9375,-6.34375,1.59375,-3.65625,-1.1875,0.9375,6.375,5.53125,2.5625,3.21875,2.34375,0.78125,1.15625,0.96875,-0.375,1.84375,0.375,-12.5625,-8.59375,-3.0625,-2.375,-6.375,-4.625,-9.28125,-10.125,-10.71875,-9.6875,-10.09375,-11.0625,-10.46875,-8.1875,-8.34375,-9.65625,-11.59375,30.96875,30.96875,30.96875,31.0,31.0,31.0,30.96875,31.0,30.59375,31.125,31.375,30.96875,30.96875,31.71875,39.09375,34.59375,35.15625,34.46875,33.75,27.375,33.0,36.8125,39.90625,37.0,32.15625,29.03125,31.65625,39.25,39.6875,33.09375,23.875,20.15625,26.375,31.25,28.71875,28.4375,29.21875,28.84375,31.875,31.28125,31.46875,33.09375,30.65625,28.5,29.03125,28.15625,26.375,31.1875,0.0
0.0,-0.03125,-0.09375,-0.125,-0.09375,0.0,0.0625,0.6875,-0.03125,-0.375,0.25,-0.875,2.28125,-2.6875,-2.46875,1.5625,-0.28125,-2.28125,-2.28125,-4.90625,-4.65625,-6.875,-4.8125,-1.90625,-0.5625,-1.65625,0.03125,0.625,7.03125,5.03125,-9.5625,-9.0625,-5.40625,-1.65625,-5.125,-1.1875,-1.71875,-0.625,-0.5625,-0.21875,-0.125,1.5,4.96875,-0.65625,0.84375,0.75,0.78125,0.875,-0.34375,-0.375,-0.40625,-0.40625,-0.40625,-0.4375,-0.46875,-0.1875,-2.5625,-2.53125,1.5,1.25,7.46875,-16.9375,-6.34375,1.59375,-3.65625,-1.1875,0.9375,6.375,5.53125,2.5625,3.21875,2.34375,0.78125,1.15625,0.96875,-0.375,1.84375,0.375,-12.5625,-8.59375,-3.0625,-2.375,-6.375,-4.625,-9.28125,-10.125,-10.71875,-9.6875,-10.09375,-11.0625,-10.46875,-8.1875,-8.34375,-9.65625,-11.59375,-10.4375,30.96875,30.96875,31.0,31.0,31.0,30.96875,31.0,30.59375,31.125,31.375,30.96875,30.96875,31.71875,39.09375,34.59375,35.15625,34.46875,33.75,27.375,33.0,36.8125,39.90625,37.0,32.15625,29.03125,31.65625,39.25,39.6875,33.09375,23.875,20.15625,26.375,31.25,28.71875,28.4375,29.21875,28.84375,31.875,31.28125,31.46875,33.09375,30.65625,28.5,29.03125,28.15625,26.375,31.1875,33.1875,0.0
-0.03125,-0.09375,-0.125,-0.09375,0.0,0.0625,0.6875,-0.03125,-0.375,0.25,-0.875,2.28125,-2.6875,-2.46875,1.5625,-0.28125,-2.28125,-2.28125,-4.90625,-4.65625,-6.875,-4.8125,-1.90625,-0.5625,-1.65625,0.03125,0.625,7.03125,5.03125,-9.5625,-9.0625,-5.40625,-1.65625,-5.125,-1.1875,-1.71875,-0.625,-0.5625,-0.21875,-0.125,1.5,4.96875,-0.65625,0.84375,0.75,0.78125,0.875,1.21875,-0.375,-0.40625,-0.40625,-0.40625,-0.4375,-0.46875,-0.1875,-2.5625,-2.53125,1.5,1.25,7.46875,-16.9375,-6.34375,1.59375,-3.65625,-1.1875,0.9375,6.375,5.53125,2.5625,3.21875,2.34375,0.78125,1.15625,0.96875,-0.375,1.84375,0.375,-12.5625,-8.59375,-3.0625,-2.375,-6.375,-4.625,-9.28125,-10.125,-10.71875,-9.6875,-10.09375,-11.0625,-10.46875,-8.1875,-8.34375,-9.65625,-11.59375,-10.4375,-9.96875,30.96875,31.0,31.0,31.0,30.96875,31.0,30.59375,31.125,31.375,30.96875,30.96875,31.71875,39.09375,34.59375,35.15625,34.46875,33.75,27.375,33.0,36.8125,39.90625,37.0,32.15625,29.03125,31.65625,39.25,39.6875,33.09375,23.875,20.15625,26.375,31.25,28.71875,28.4375,29.21875,28.84375,31.875,31.28125,31.46875,33.09375,30.65625,28.5,29.03125,28.15625,26.375,31.1875,33.1875,30.84375,0.0
-0.09375,-0.125,-0.09375,0.0,0.0625,0.6875,-0.03125,-0.375,0.25,-0.875,2.28125,-2.6875,-2.46875,1.5625,-0.28125,-2.28125,-2.28125,-4.90625,-4.65625,-6.875,-4.8125,-1.90625,-0.5625,-1.65625,0.03125,0.625,7.03125,5.03125,-9.5625,-9.0625,-5.40625,-1.65625,-5.125,-1.1875,-1.71875,-0.625,-0.5625,-0.21875,-0.125,1.5,4.96875,-0.65625,0.84375,0.75,0.78125,0.875,1.21875,0.0,-0.40625,-0.40625,-0.40625,-0.4375,-0.46875,-0.1875,-2.5625,-2.53125,1.5,1.25,7.46875,-16.9375,-6.34375,1.59375,-3.65625,-1.1875,0.9375,6.375,5.53125,2.5625,3.21875,2.34375,0.78125,1.15625,0.96875,-0.375,1.84375,0.375,-12.5625,-8.59375,-3.0625,-2.375,-6.375,-4.625,-9.28125,-10.125,-10.71875,-9.6875,-10.09375,-11.0625,-10.46875,-8.1875,-8.34375,-9.65625,-11.59375,-10.4375,-9.96875,-8.6875,31.0,31.0,31.0,30.96875,31.0,30.59375,31.125,31.375,30.96875,30.96875,31.71875,39.09375,34.59375,35.15625,34.46875,33.75,27.375,33.0,36.8125,39.90625,37.0,32.15625,29.03125,31.65625,39.25,39.6875,33.09375,23.875,20.15625,26.375,31.25,28.71875,28.4375,29.21875,28.84375,31.875,31.28125,31.46875,33.09375,30.65625,28.5,29.03125,28.15625,26.375,31.1875,33.1875,30.84375,29.03125,0.0
-0.125,-0.09375,0.0,0.0625,0.6875,-0.03125,-0.375,0.25,-0.875,2.28125,-2.6875,-2.46875,1.5625,-0.28125,-2.28125,-2.28125,-4.90625,-4.65625,-6.875,-4.8125,-1.90625,-0.5625,-1.65625,0.03125,0.625,7.03125,5.03125,-9.5625,-9.0625,-5.40625,-1.65625,-5.125,-1.1875,-1.71875,-0.625,-0.5625,-0.21875,-0.125,1.5,4.96875,-0.65625,0.84375,0.75,0.78125,0.875,1.21875,0.0,-3.09375,-0.40625,-0.40625,-0.4375,-0.46875,-0.1875,-2.5625,-2.53125,1.5,1.25,7.46875,-16.9375,-6.34375,1.59375,-3.65625,-1.1875,0.9375,6.375,5.53125,2.5625,3.21875,2.34375,0.78125,1.15625,0.96875,-0.375,1.84375,0.375,-12.5625,-8.59375,-3.0625,-2.375,-6.375,-4.625,-9.28125,-10.125,-10.71875,-9.6875,-10.09375,-11.0625,-10.46875,-8.1875,-8.34375,-9.65625,-11.59375,-10.4375,-9.96875,-8.6875,-5.53125,31.0,31.0,30.96875,31.0,30.59375,31.125,31.375,30.96875,30.96875,31.71875,39.09375,34.59375,35.15625,34.46875,33.75,27.375,33.0,36.8125,39.90625,37.0,32.15625,29.03125,31.65625,39.25,39.6875,33.09375,23.875,20.15625,26.375,31.25,28.71875,28.4375,29.21875,28.84375,31.875,31.28125,31.46875,33.09375,30.65625,28.5,29.03125,28.15625,26.375,31.1875,33.1875,30.84375,29.03125,26.9375,0.0
-0.09375,0.0,0.0625,0.6875,-0.03125,-0.375,0.25,-0.875,2.28125,-2.6875,-2.46875,1.5625,-0.28125,-2.28125,-2.28125,-4.90625,-4.65625,-6.875,-4.8125,-1.90625,-0.5625,-1.65625,0.03125,0.625,7.03125,5.03125,-9.5625,-9.0625,-5.40625,-1.65625,-5.125,-1.1875,-1.71875,-0.625,-0.5625,-0.21875,-0.125,1.5,4.96875,-0.65625,0.84375,0.75,0.78125,0.875,1.21875,0.0,-3.09375,-1.21875,-0.40625,-0.4375,-0.46875,-0.1875,-2.5625,-2.53125,1.5,1.25,7.46875,-16.9375,-6.34375,1.59375,-3.65625,-1.1875,0.9375,6.375,5.53125,2.5625,3.21875,2.34375,0.78125,1.15625,0.96875,-0.375,1.84375,0.375,-12.5625,-8.59375,-3.0625,-2.375,-6.375,-4.625,-9.28125,-10.125,-10.71875,-9.6875,-10.09375,-11.0625,-10.46875,-8.1875,-8.34375,-9.65625,-11.59375,-10.4375,-9.96875,-8.6875,-5.53125,-7.1875,31.0,30.96875,31.0,30.59375,31.125,31.375,30.96875,30.96875,31.71875,39.09375,34.59375,35.15625,34.46875,33.75,27.375,33.0,36.8125,39.90625,37.0,32.15625,29.03125,31.65625,39.25,39.6875,33.09375,23.875,20.15625,26.375,31.25,28.71875,28.4375,29.21875,28.84375,31.875,31.28125,31.46875,33.09375,30.65625,28.5,29.03125,28.15625,26.375,31.1875,33.1875,30.84375,29.03125,26.9375,24.71875,0.0
0.0,0.0625,0.6875,-0.03125,-0.375,0.25,-0.875,2.28125,-2.6875,-2.46875,1.5625,-0.28125,-2.28125,-2.28125,-4.90625,-4.65625,-6.875,-4.8125,-1.90625,-0.5625,-1.65625,0.03125,0.625,7.03125,5.03125,-9.5625,-9.0625,-5.40625,-1.65625,-5.125,-1.1875,-1.71875,-0.625,-0.5625,-0.21875,-0.125,1.5,4.96875,-0.65625,0.84375,0.75,0.78125,0.875,1.21875,0.0,-3.09375,-1.21875,-1.90625,-0.4375,-0.46875,-0.1875,-2.5625,-2.53125,1.5,1.25,7.46875,-16.9375,-6.34375,1.59375,-3.65625,-1.1875,0.9375,6.375,5.53125,2.5625,3.21875,2.34375,0.78125,1.15625,0.96875,-0.375,1.84375,0.375,-12.5625,-8.59375,-3.0625,-2.375,-6.375,-4.625,-9.28125,-10.125,-10.71875,-9.6875,-10.09375,-11.0625,-10.46875,-8.1875,-8.34375,-9.65625,-11.59375,-10.4375,-9.96875,-8.6875,-5.53125,-7.1875,-9.71875,30.96875,31.0,30.59375,31.125,31.375,30.96875,30.96875,31.71875,39.09375,34.59375,35.15625,34.46875,33.75,27.375,33.0,36.8125,39.90625,37.0,32.15625,29.03125,31.65625,39.25,39.6875,33.09375,23.875,20.15625,26.375,31.25,28.71875,28.4375,29.21875,28.84375,31.875,31.28125,31.46875,33.09375,30.65625,28.5,29.03125,28.15625,26.375,31.1875,33.1875,30.84375,29.03125,26.9375,24.71875,25.8125,0.0
0.0625,0.6875,-0.03125,-0.375,0.25,-0.875,2.28125,-2.6875,-2.46875,1.5625,-0.28125,-2.28125,-2.28125,-4.90625,-4.65625,-6.875,-4.8125,-1.90625,-0.5625,-1.65625,0.03125,0.625,7.03125,5.03125,-9.5625,-9.0625,-5.40625,-1.65625,-5.125,-1.1875,-1.71875,-0.625,-0.5625,-0.21875,-0.125,1.5,4.96875,-0.65625,0.84375,0.75,0.78125,0.875,1.21875,0.0,-3.09375,-1.21875,-1.90625,-1.03125,-0.46875,-0.1875,-2.5625,-2.53125,1.5,1.25,7.46875,-16.9375,-6.34375,1.59375,-3.65625,-1.1875,0.9375,6.375,5.53125,2.5625,3.21875,2.34375,0.78125,1.15625,0.96875,-0.375,1.84375,0.375,-12.5625,-8.59375,-3.0625,-2.375,-6.375,-4.625,-9.28125,-10.125,-10.71875,-9.6875,-10.09375,-11.0625,-10.46875,-8.1875,-8.34375,-9.65625,-11.59375,-10.4375,-9.96875,-8.6875,-5.53125,-7.1875,-9.71875,-9.71875,31.0,30.59375,31.125,31.375,30.96875,30.96875,31.71875,39.09375,34.59375,35.15625,34.46875,33.75,27.375,33.0,36.8125,39.90625,37.0,32.15625,29.03125,31.65625,39.25,39.6875,33.09375,23.875,20.15625,26.375,31.25,28.71875,28.4375,29.21875,28.84375,31.875,31.28125,31.46875,33.09375,30.65625,28.5,29.03125,28.15625,26.375,31.1875,33.1875,30.84375,29.03125,26.9375,24.71875,25.8125,30.6875,0.0
0.6875,-0.03125,-0.375,0.25,-0.875,2.28125,-2.6875,-2.46875,1.5625,-0.28125,-2.28125,-2.28125,-4.90625,-4.65625,-6.875,-4.8125,-1.90625,-0.5625,-1.65625,0.03125,0.625,7.03125,5.03125,-9.5625,-9.0625,-5.40625,-1.65625,-5.125,-1.1875,-1.71875,-0.625,-0.5625,-0.21875,-0.125,1.5,4.96875,-0.65625,0.84375,0.75,0.78125,0.875,1.21875,0.0,-3.09375,-1.21875,-1.90625,-1.03125,0.0,-0.1875,-2.5625,-2.53125,1.5,1.25,7.46875,-16.9375,-6.34375,1.59375,-3.65625,-1.1875,0.9375,6.375,5.53125,2.5625,3.21875,2.34375,0.78125,1.15625,0.96875,-0.375,1.84375,0.375,-12.5625,-8.59375,-3.0625,-2.375,-6.375,-4.625,-9.28125,-10.125,-10.71875,-9.6875,-10.09375,-11.0625,-10.46875,-8.1875,-8.34375,-9.65625,-11.59375,-10.4375,-9.96875,-8.6875,-5.53125,-7.1875,-9.71875,-9.71875,-9.25,30.59375,31.125,31.375,30.96875,30.96875,31.71875,39.09375,34.59375,35.15625,34.46875,33.75,27.375,33.0,36.8125,39.90625,37.0,32.15625,29.03125,31.65625,39.25,39.6875,33.09375,23.875,20.15625,26.375,31.25,28.71875,28.4375,29.21875,28.84375,31.875,31.28125,31.46875,33.09375,30.65625,28.5,29.03125,28.15625,26.375,31.1875,33.1875,30.84375,29.03125,26.9375,24.71875,25.8125,30.6875,31.09375,0.0
-0.03125,-0.375,0.25,-0.875,2.28125,-2.6875,-2.46875,1.5625,-0.28125,-2.28125,-2.28125,-4.90625,-4.65625,-6.875,-4.8125,-1.90625,-0.5625,-1.65625,0.03125,0.625,7.03125,5.03125,-9.5625,-9.0625,-5.40625,-1.65625,-5.125,-1.1875,-1.71875,-0.625,-0.5625,-0.21875,-0.125,1.5,4.96875,-0.65625,0.84375,0.75,0.78125,0.875,1.21875,0.0,-3.09375,-1.21875,-1.90625,-1.03125,0.0,-0.90625,-2.5625,-2.53125,1.5,1.25,7.46875,-16.9375,-6.34375,1.59375,-3.65625,-1.1875,0.9375,6.375,5.53125,2.5625,3.21875,2.34375,0.78125,1.15625,0.96875,-0.375,1.84375,0.375,-12.5625,-8.59375,-3.0625,-2.375,-6.375,-4.625,-9.28125,-10.125,-10.71875,-9.6875,-10.09375,-11.0625,-10.46875,-8.1875,-8.34375,-9.65625,-11.59375,-10.4375,-9.96875,-8.6875,-5.53125,-7.1875,-9.71875,-9.71875,-9.25,-8.40625,31.125,31.375,30.96875,30.96875,31.71875,39.09375,34.59375,35.15625,34.46875,33.75,27.375,33.0,36.8125,39.90625,37.0,32.15625,29.03125,31.65625,39.25,39.6875,33.09375,23.875,20.15625,26.375,31.25,28.71875,28.4375,29.21875,28.84375,31.875,31.28125,31.46875,33.09375,30.65625,28.5,29.03125,28.15625,26.375,31.1875,33.1875,30.84375,29.03125,26.9375,24.71875,25.8125,30.6875,31.09375,28.3125,0.0
-0.375,0.25,-0.875,2.28125,-2.6875,-2.46875,1.5625,-0.28125,-2.28125,-2.28125,-4.90625,-4.65625,-6.875,-4.8125,-1.90625,-0.5625,-1.65625,0.03125,0.625,7.03125,5.03125,-9.5625,-9.0625,-5.40625,-1.65625,-5.125,-1.1875,-1.71875,-0.625,-0.5625,-0.21875,-0.125,1.5,4.96875,-0.65625,0.84375,0.75,0.78125,0.875,1.21875,0.0,-3.09375,-1.21875,-1.90625,-1.03125,0.0,-0.90625,-2.90625,-2.53125,1.5,1.25,7.46875,-16.9375,-6.34375,1.59375,-3.65625,-1.1875,0.9375,6.375,5.53125,2.5625,3.21875,2.34375,0.78125,1.15625,0.96875,-0.375,1.84375,0.375,-12.5625,-8.59375,-3.0625,-2.375,-6.375,-4.625,-9.28125,-10.125,-10.71875,-9.6875,-10.09375,-11.0625,-10.46875,-8.1875,-8.34375,-9.65625,-11.59375,-10.4375,-9.96875,-8.6875,-5.53125,-7.1875,-9.71875,-9.71875,-9.25,-8.40625,-9.46875,31.375,30.96875,30.96875,31.71875,39.09375,34.59375,35.15625,34.46875,33.75,27.375,33.0,36.8125,39.90625,37.0,32.15625,29.03125,31.65625,39.25,39.6875,33.09375,23.875,20.15625,26.375,31.25,28.71875,28.4375,29.21875,28.84375,31.875,31.28125,31.46875,33.09375,30.65625,28.5,29.03125,28.15625,26.375,31.1875,33.1875,30.84375,29.03125,26.9375,24.71875,25.8125,30.6875,31.09375,28.3125,25.5625,0.0
0.25,-0.875,2.28125,-2.6875,-2.46875,1.5625,-0.28125,-2.28125,-2.28125,-4.90625,-4.65625,-6.875,-4.8125,-1.90625,-0.5625,-1.65625,0.03125,0.625,7.03125,5.03125,-9.5625,-9.0625,-5.40625,-1.65625,-5.125,-1.1875,-1.71875,-0.625,-0.5625,-0.21875,-0.125,1.5,4.96875,-0.65625,0.84375,0.75,0.78125,0.875,1.21875,0.0,-3.09375,-1.21875,-1.90625,-1.03125,0.0,-0.90625,-2.90625,-3.59375,1.5,1.25,7.46875,-16.9375,-6.34375,1.59375,-3.65625,-1.1875,0.9375,6.375,5.53125,2.5625,3.21875,2.34375,0.78125,1.15625,0.96875,-0.375,1.84375,0.375,-12.5625,-8.59375,-3.0625,-2.375,-6.375,-4.625,-9.28125,-10.125,-10.71875,-9.6875,-10.09375,-11.0625,-10.46875,-8.1875,-8.34375,-9.65625,-11.59375,-10.4375,-9.96875,-8.6875,-5.53125,-7.1875,-9.71875,-9.71875,-9.25,-8.40625,-9.46875,-8.875,30.96875,30.96875,31.71875,39.09375,34.59375,35.15625,34.46875,33.75,27.375,33.0,36.8125,39.90625,37.0,32.15625,29.03125,31.65625,39.25,39.6875,33.09375,23.875,20.15625,26.375,31.25,28.71875,28.4375,29.21875,28.84375,31.875,31.28125,31.46875,33.09375,30.65625,28.5,29.03125,28.15625,26.375,31.1875,33.1875,30.84375,29.03125,26.9375,24.71875,25.8125,30.6875,31.09375,28.3125,25.5625,25.75,0.0
-0.875,2.28125,-2.6875,-2.46875,1.5625,-0.28125,-2.28125,-2.28125,-4.90625,-4.65625,-6.875,-4.8125,-1.90625,-0.5625,-1.65625,0.03125,0.625,7.03125,5.03125,-9.5625,-9.0625,-5.40625,-1.65625,-5.125,-1.1875,-1.71875,-0.625,-0.5625,-0.21875,-0.125,1.5,4.96875,-0.65625,0.84375,0.75,0.78125,0.875,1.21875,0.0,-3.09375,-1.21875,-1.90625,-1.03125,0.0,-0.90625,-2.90625,-3.59375,-3.5625,1.25,7.46875,-16.9375,-6.34375,1.59375,-3.65625,-1.1875,0.9375,6.375,5.53125,2.5625,3.21875,2.34375,0.78125,1.15625,0.96875,-0.375,1.84375,0.375,-12.5625,-8.59375,-3.0625,-2.375,-6.375,-4.625,-9.28125,-10.125,-10.71875,-9.6875,-10.09375,-11.0625,-10.46875,-8.1875,-8.34375,-9.65625,-11.59375,-10.4375,-9.96875,-8.6875,-5.53125,-7.1875,-9.71875,-9.71875,-9.25,-8.40625,-9.46875,-8.875,-8.28125,30.96875,31.71875,39.09375,34.59375,35.15625,34.46875,33.75,27.375,33.0,36.8125,39.90625,37.0,32.15625,29.03125,31.65625,39.25,39.6875,33.09375,23.875,20.15625,26.375,31.25,28.71875,28.4375,29.21875,28.84375,31.875,31.28125,31.46875,33.09375,30.65625,28.5,29.03125,28.15625,26.375,31.1875,33.1875,30.84375,29.03125,26.9375,24.71875,25.8125,30.6875,31.09375,28.3125,25.5625,25.75,25.625,0.0
2.28125,-2.6875,-2.46875,1.5625,-0.28125,-2.28125,-2.28125,-4.90625,-4.65625,-6.875,-4.8125,-1.90625,-0.5625,-1.65625,0.03125,0.625,7.03125,5.03125,-9.5625,-9.0625,-5.40625,-1.65625,-5.125,-1.1875,-1.71875,-0.625,-0.5625,-0.21875,-0.125,1.5,4.96875,-0.65625,0.84375,0.75,0.78125,0.875,1.21875,0.0,-3.09375,-1.21875,-1.90625,-1.03125,0.0,-0.90625,-2.90625,-3.59375,-3.5625,-3.3125,7.46875,-16.9375,-6.34375,1.59375,-3.65625,-1.1875,0.9375,6.375,5.53125,2.5625,3.21875,2.34375,0.78125,1.15625,0.96875,-0.375,1.84375,0.375,-12.5625,-8.59375,-3.0625,-2.375,-6.375,-4.625,-9.28125,-10.125,-10.71875,-9.6875,-10.09375,-11.0625,-10.46875,-8.1875,-8.34375,-9.65625,-11.59375,-10.4375,-9.96875,-8.6875,-5.53125,-7.1875,-9.71875,-9.71875,-9.25,-8.40625,-9.46875,-8.875,-8.28125,-10.40625,31.71875,39.09375,34.59375,35.15625,34.46875,33.75,27.375,33.0,36.8125,39.90625,37.0,32.15625,29.03125,31.65625,39.25,39.6875,33.09375,23.875,20.15625,26.375,31.25,28.71875,28.4375,29.21875,28.84375,31.875,31.28125,31.46875,33.09375,30.65625,28.5,29.03125,28.15625,26.375,31.1875,33.1875,30.84375,29.03125,26.9375,24.71875,25.8125,30.6875,31.09375,28.3125,25.5625,25.75,25.625,24.5625,0.0
-2.6875,-2.46875,1.5625,-0.28125,-2.28125,-2.28125,-4.90625,-4.65625,-6.875,-4.8125,-1.90625,-0.5625,-1.65625,0.03125,0.625,7.03125,5.03125,-9.5625,-9.0625,-5.40625,-1.65625,-5.125,-1.1875,-1.71875,-0.625,-0.5625,-0.21875,-0.125,1.5,4.96875,-0.65625,0.84375,0.75,0.78125,0.875,1.21875,0.0,-3.09375,-1.21875,-1.90625,-1.03125,0.0,-0.90625,-2.90625,-3.59375,-3.5625,-3.3125,-5.15625,-16.9375,-6.34375,1.59375,-3.65625,-1.1875,0.9375,6.375,5.53125,2.5625,3.21875,2.34375,0.78125,1.15625,0.96875,-0.375,1.84375,0.375,-12.5625,-8.59375,-3.0625,-2.375,-6.375,-4.625,-9.28125,-10.125,-10.71875,-9.6875,-10.09375,-11.0625,-10.46875,-8.1875,-8.34375,-9.65625,-11.59375,-10.4375,-9.96875,-8.6875,-5.53125,-7.1875,-9.71875,-9.71875,-9.25,-8.40625,-9.46875,-8.875,-8.28125,-10.40625,-11.125,39.09375,34.59375,35.15625,34.46875,33.75,27.375,33.0,36.8125,39.90625,37.0,32.15625,29.03125,31.65625,39.25,39.6875,33.09375,23.875,20.15625,26.375,31.25,28.71875,28.4375,29.21875,28.84375,31.875,31.28125,31.46875,33.09375,30.65625,28.5,29.03125,28.15625,26.375,31.1875,33.1875,30.84375,29.03125,26.9375,24.71875,25.8125,30.6875,31.09375,28.3125,25.5625,25.75,25.625,24.5625,24.9375,0.0
-2.46875,1.5625,-0.28125,-2.28125,-2.28125,-4.90625,-4.65625,-6.875,-4.8125,-1.90625,-0.5625,-1.65625,0.03125,0.625,7.03125,5.03125,-9.5625,-9.0625,-5.40625,-1.65625,-5.125,-1.1875,-1.71875,-0.625,-0.5625,-0.21875,-0.125,1.5,4.96875,-0.65625,0.84375,0.75,0.78125,0.875,1.21875,0.0,-3.09375,-1.21875,-1.90625,-1.03125,0.0,-0.90625,-2.90625,-3.59375,-3.5625,-3.3125,-5.15625,-5.5,-6.34375,1.59375,-3.65625,-1.1875,0.9375,6.375,5.53125,2.5625,3.21875,2.34375,0.78125,1.15625,0.96875,-0.375,1.84375,0.375,-12.5625,-8.59375,-3.0625,-2.375,-6.375,-4.625,-9.28125,-10.125,-10.71875,-9.6875,-10.09375,-11.0625,-10.46875,-8.1875,-8.34375,-9.65625,-11.59375,-10.4375,-9.96875,-8.6875,-5.53125,-7.1875,-9.71875,-9.71875,-9.25,-8.40625,-9.46875,-8.875,-8.28125,-10.40625,-11.125,-8.34375,34.59375,35.15625,34.46875,33.75,27.375,33.0,36.8125,39.90625,37.0,32.15625,29.03125,31.65625,39.25,39.6875,33.09375,23.875,20.15625,26.375,31.25,28.71875,28.4375,29.21875,28.84375,31.875,31.28125,31.46875,33.09375,30.65625,28.5,29.03125,28.15625,26.375,31.1875,33.1875,30.84375,29.03125,26.9375,24.71875,25.8125,30.6875,31.09375,28.3125,25.5625,25.75,25.625,24.5625,24.9375,27.6875,0.0
1.5625,-0.28125,-2.28125,-2.28125,-4.90625,-4.65625,-6.875,-4.8125,-1.90625,-0.5625,-1.65625,0.03125,0.625,7.03125,5.03125,-9.5625,-9.0625,-5.40625,-1.65625,-5.125,-1.1875,-1.71875,-0.625,-0.5625,-0.21875,-0.125,1.5,4.96875,-0.65625,0.84375,0.75,0.78125,0.875,1.21875,0.0,-3.09375,-1.21875,-1.90625,-1.03125,0.0,-0.90625,-2.90625,-3.59375,-3.5625,-3.3125,-5.15625,-5.5,-6.0625,1.59375,-3.65625,-1.1875,0.9375,6.375,5.53125,2.5625,3.21875,2.34375,0.78125,1.15625,0.96875,-0.375,1.84375,0.375,-12.5625,-8.59375,-3.0625,-2.375,-6.375,-4.625,-9.28125,-10.125,-10.71875,-9.6875,-10.09375,-11.0625,-10.46875,-8.1875,-8.34375,-9.65625,-11.59375,-10.4375,-9.96875,-8.6875,-5.53125,-7.1875,-9.71875,-9.71875,-9.25,-8.40625,-9.46875,-8.875,-8.28125,-10.40625,-11.125,-8.34375,-7.53125,35.15625,34.46875,33.75,27.375,33.0,36.8125,39.90625,37.0,32.15625,29.03125,31.65625,39.25,39.6875,33.09375,23.875,20.15625,26.375,31.25,28.71875,28.4375,29.21875,28.84375,31.875,31.28125,31.46875,33.09375,30.65625,28.5,29.03125,28.15625,26.375,31.1875,33.1875,30.84375,29.03125,26.9375,24.71875,25.8125,30.6875,31.09375,28.3125,25.5625,25.75,25.625,24.5625,24.9375,27.6875,26.28125,0.0
-0.28125,-2.28125,-2.28125,-4.90625,-4.65625,-6.875,-4.8125,-1.90625,-0.5625,-1.65625,0.03125,0.625,7.03125,5.03125,-9.5625,-9.0625,-5.40625,-1.65625,-5.125,-1.1875,-1.71875,-0.625,-0.5625,-0.21875,-0.125,1.5,4.96875,-0.65625,0.84375,0.75,0.78125,0.875,1.21875,0.0,-3.09375,-1.21875,-1.90625,-1.03125,0.0,-0.90625,-2.90625,-3.59375,-3.5625,-3.3125,-5.15625,-5.5,-6.0625,-6.625,-3.65625,-1.1875,0.9375,6.375,5.53125,2.5625,3.21875,2.34375,0.78125,1.15625,0.96875,-0.375,1.84375,0.375,-12.5625,-8.59375,-3.0625,-2.375,-6.375,-4.625,-9.28125,-10.125,-10.71875,-9.6875,-10.09375,-11.0625,-10.46875,-8.1875,-8.34375,-9.65625,-11.59375,-10.4375,-9.96875,-8.6875,-5.53125,-7.1875,-9.71875,-9.71875,-9.25,-8.40625,-9.46875,-8.875,-8.28125,-10.40625,-11.125,-8.34375,-7.53125,-9.3125,34.46875,33.75,27.375,33.0,36.8125,39.90625,37.0,32.15625,29.03125,31.65625,39.25,39.6875,33.09375,23.875,20.15625,26.375,31.25,28.71875,28.4375,29.21875,28.84375,31.875,31.28125,31.46875,33.09375,30.65625,28.5,29.03125,28.15625,26.375,31.1875,33.1875,30.84375,29.03125,26.9375,24.71875,25.8125,30.6875,31.09375,28.3125,25.5625,25.75,25.625,24.5625,24.9375,27.6875,26.28125,21.5625,0.0
-2.28125,-2.28125,-4.90625,-4.65625,-6.875,-4.8125,-1.90625,-0.5625,-1.65625,0.03125,0.625,7.03125,5.03125,-9.5625,-9.0625,-5.40625,-1.65625,-5.125,-1.1875,-1.71875,-0.625,-0.5625,-0.21875,-0.125,1.5,4.96875,-0.65625,0.84375,0.75,0.78125,0.875,1.21875,0.0,-3.09375,-1.21875,-1.90625,-1.03125,0.0,-0.90625,-2.90625,-3.59375,-3.5625,-3.3125,-5.15625,-5.5,-6.0625,-6.625,-6.0,-1.1875,0.9375,6.375,5.53125,2.5625,3.21875,2.34375,0.78125,1.15625,0.96875,-0.375,1.84375,0.375,-12.5625,-8.59375,-3.0625,-2.375,-6.375,-4.625,-9.28125,-10.125,-10.71875,-9.6875,-10.09375,-11.0625,-10.46875,-8.1875,-8.34375,-9.65625,-11.59375,-10.4375,-9.96875,-8.6875,-5.53125,-7.1875,-9.71875,-9.71875,-9.25,-8.40625,-9.46875,-8.875,-8.28125,-10.40625,-11.125,-8.34375,-7.53125,-9.3125,-10.25,33.75,27.375,33.0,36.8125,39.90625,37.0,32.15625,29.03125,31.65625,39.25,39.6875,33.09375,23.875,20.15625,26.375,31.25,28.71875,28.4375,29.21875,28.84375,31.875,31.28125,31.46875,33.09375,30.65625,28.5,29.03125,28.15625,26.375,31.1875,33.1875,30.84375,29.03125,26.9375,24.71875,25.8125,30.6875,31.09375,28.3125,25.5625,25.75,25.625,24.5625,24.9375,27.6875,26.28125,21.5625,24.96875,0.0
-2.28125,-4.90625,-4.65625,-6.875,-4.8125,-1.90625,-0.5625,-1.65625,0.03125,0.625,7.03125,5.03125,-9.5625,-9.0625,-5.40625,-1.65625,-5.125,-1.1875,-1.71875,-0.625,-0.5625,-0.21875,-0.125,1.5,4.96875,-0.65625,0.84375,0.75,0.78125,0.875,1.21875,0.0,-3.09375,-1.21875,-1.90625,-1.03125,0.0,-0.90625,-2.90625,-3.59375,-3.5625,-3.3125,-5.15625,-5.5,-6.0625,-6.625,-6.0,-6.25,0.9375,6.375,5.53125,2.5625,3.21875,2.34375,0.78125,1.15625,0.96875,-0.375,1.84375,0.375,-12.5625,-8.59375,-3.0625,-2.375,-6.375,-4.625,-9.28125,-10.125,-10.71875,-9.6875,-10.09375,-11.0625,-10.46875,-8.1875,-8.34375,-9.65625,-11.59375,-10.4375,-9.96875,-8.6875,-5.53125,-7.1875,-9.71875,-9.71875,-9.25,-8.40625,-9.46875,-8.875,-8.28125,-10.40625,-11.125,-8.34375,-7.53125,-9.3125,-10.25,-12.46875,27.375,33.0,36.8125,39.90625,37.0,32.15625,29.03125,31.65625,39.25,39.6875,33.09375,23.875,20.15625,26.375,31.25,28.71875,28.4375,29.21875,28.84375,31.875,31.28125,31.46875,33.09375,30.65625,28.5,29.03125,28.15625,26.375,31.1875,33.1875,30.84375,29.03125,26.9375,24.71875,25.8125,30.6875,31.09375,28.3125,25.5625,25.75,25.625,24.5625,24.9375,27.6875,26.28125,21.5625,24.96875,28.625,0.0
-4.90625,-4.65625,-6.875,-4.8125,-1.90625,-0.5625,-1.65625,0.03125,0.625,7.03125,5.03125,-9.5625,-9.0625,-5.40625,-1.65625,-5.125,-1.1875,-1.71875,-0.625,-0.5625,-0.21875,-0.125,1.5,4.96875,-0.65625,0.84375,0.75,0.78125,0.875,1.21875,0.0,-3.09375,-1.21875,-1.90625,-1.03125,0.0,-0.90625,-2.90625,-3.59375,-3.5625,-3.3125,-5.15625,-5.5,-6.0625,-6.625,-6.0,-6.25,-7.15625,6.375,5.53125,2.5625,3.21875,2.34375,0.78125,1.15625,0.96875,-0.375,1.84375,0.375,-12.5625,-8.59375,-3.0625,-2.375,-6.375,-4.625,-9.28125,-10.125,-10.71875,-9.6875,-10.09375,-11.0625,-10.46875,-8.1875,-8.34375,-9.65625,-11.59375,-10.4375,-9.96875,-8.6875,-5.53125,-7.1875,-9.71875,-9.71875,-9.25,-8.40625,-9.46875,-8.875,-8.28125,-10.40625,-11.125,-8.34375,-7.53125,-9.3125,-10.25,-12.46875,-13.375,33.0,36.8125,39.90625,37.0,32.15625,29.03125,31.65625,39.25,39.6875,33.09375,23.875,20.15625,26.375,31.25,28.71875,28.4375,29.21875,28.84375,31.875,31.28125,31.46875,33.09375,30.65625,28.5,29.03125,28.15625,26.375,31.1875,33.1875,30.84375,29.03125,26.9375,24.71875,25.8125,30.6875,31.09375,28.3125,25.5625,25.75,25.625,24.5625,24.9375,27.6875,26.28125,21.5625,24.96875,28.625,33.1875,0.0
-4.65625,-6.875,-4.8125,-1.90625,-0.5625,-1.65625,0.03125,0.625,7.03125,5.03125,-9.5625,-9.0625,-5.40625,-1.65625,-5.125,-1.1875,-1.71875,-0.625,-0.5625,-0.21875,-0.125,1.5,4.96875,-0.65625,0.84375,0.75,0.78125,0.875,1.21875,0.0,-3.09375,-1.21875,-1.90625,-1.03125,0.0,-0.90625,-2.90625,-3.59375,-3.5625,-3.3125,-5.15625,-5.5,-6.0625,-6.625,-6.0,-6.25,-7.15625,-7.53125,5.53125,2.5625,3.21875,2.34375,0.78125,1.15625,0.96875,-0.375,1.84375,0.375,-12.5625,-8.59375,-3.0625,-2.375,-6.375,-4.625,-9.28125,-10.125,-10.71875,-9.6875,-10.09375,-11.0625,-10.46875,-8.1875,-8.34375,-9.65625,-11.59375,-10.4375,-9.96875,-8.6875,-5.53125,-7.1875,-9.71875,-9.71875,-9.25,-8.40625,-9.46875,-8.875,-8.28125,-10.40625,-11.125,-8.34375,-7.53125,-9.3125,-10.25,-12.46875,-13.375,-13.21875,36.8125,39.90625,37.0,32.15625,29.03125,31.65625,39.25,39.6875,33.09375,23.875,20.15625,26.375,31.25,28.71875,28.4375,29.21875,28.84375,31.875,31.28125,31.46875,33.09375,30.65625,28.5,29.03125,28.15625,26.375,31.1875,33.1875,30.84375,29.03125,26.9375,24.71875,25.8125,30.6875,31.09375,28.3125,25.5625,25.75,25.625,24.5625,24.9375,27.6875,26.28125,21.5625,24.96875,28.625,33.1875,29.65625,0.0
-6.875,-4.8125,-1.90625,-0.5625,-1.65625,0.03125,0.625,7.03125,5.03125,-9.5625,-9.0625,-5.40625,-1.65625,-5.125,-1.1875,-1.71875,-0.625,-0.5625,-0.21875,-0.125,1.5,4.96875,-0.65625,0.84375,0.75,0.78125,0.875,1.21875,0.0,-3.09375,-1.21875,-1.90625,-1.03125,0.0,-0.90625,-2.90625,-3.59375,-3.5625,-3.3125,-5.15625,-5.5,-6.0625,-6.625,-6.0,-6.25,-7.15625,-7.53125,-8.5625,2.5625,3.21875,2.34375,0.78125,1.15625,0.96875,-0.375,1.84375,0.375,-12.5625,-8.59375,-3.0625,-2.375,-6.375,-4.625,-9.28125,-10.125,-10.71875,-9.6875,-10.09375,-11.0625,-10.46875,-8.1875,-8.34375,-9.65625,-11.59375,-10.4375,-9.96875,-8.6875,-5.53125,-7.1875,-9.71875,-9.71875,-9.25,-8.40625,-9.46875,-8.875,-8.28125,-10.40625,-11.125,-8.34375,-7.53125,-9.3125,-10.25,-12.46875,-13.375,-13.21875,-12.0,39.90625,37.0,32.15625,29.03125,31.65625,39.25,39.6875,33.09375,23.875,20.15625,26.375,31.25,28.71875,28.4375,29.21875,28.84375,31.875,31.28125,31.46875,33.09375,30.65625,28.5,29.03125,28.15625,26.375,31.1875,33.1875,30.84375,29.03125,26.9375,24.71875,25.8125,30.6875,31.09375,28.3125,25.5625,25.75,25.625,24.5625,24.9375,27.6875,26.28125,21.5625,24.96875,28.625,33.1875,29.65625,35.34375,0.0
-4.8125,-1.90625,-0.5625,-1.65625,0.03125,0.625,7.03125,5.03125,-9.5625,-9.0625,-5.40625,-1.65625,-5.125,-1.1875,-1.71875,-0.625,-0.5625,-0.21875,-0.125,1.5,4.96875,-0.65625,0.84375,0.75,0.78125,0.875,1.21875,0.0,-3.09375,-1.21875,-1.90625,-1.03125,0.0,-0.90625,-2.90625,-3.59375,-3.5625,-3.3125,-5.15625,-5.5,-6.0625,-6.625,-6.0,-6.25,-7.15625,-7.53125,-8.5625,-8.09375,3.21875,2.34375,0.78125,1.15625,0.96875,-0.375,1.84375,0.375,-12.5625,-8.59375,-3.0625,-2.375,-6.375,-4.625,-9.28125,-10.125,-10.71875,-9.6875,-10.09375,-11.0625,-10.46875,-8.1875,-8.34375,-9.65625,-11.59375,-10.4375,-9.96875,-8.6875,-5.53125,-7.1875,-9.71875,-9.71875,-9.25,-8.40625,-9.46875,-8.875,-8.28125,-10.40625,-11.125,-8.34375,-7.53125,-9.3125,-10.25,-12.46875,-13.375,-13.21875,-12.0,-10.625,37.0,32.15625,29.03125,31.65625,39.25,39.6875,33.09375,23.875,20.15625,26.375,31.25,28.71875,28.4375,29.21875,28.84375,31.875,31.28125,31.46875,33.09375,30.65625,28.5,29.03125,28.15625,26.375,31.1875,33.1875,30.84375,29.03125,26.9375,24.71875,25.8125,30.6875,31.09375,28.3125,25.5625,25.75,25.625,24.5625,24.9375,27.6875,26.28125,21.5625,24.96875,28.625,33.1875,29.65625,35.34375,31.625,0.0
-1.90625,-0.5625,-1.65625,0.03125,0.625,7.03125,5.03125,-9.5625,-9.0625,-5.40625,-1.65625,-5.125,-1.1875,-1.71875,-0.625,-0.5625,-0.21875,-0.125,1.5,4.96875,-0.65625,0.84375,0.75,0.78125,0.875,1.21875,0.0,-3.09375,-1.21875,-1.90625,-1.03125,0.0,-0.90625,-2.90625,-3.59375,-3.5625,-3.3125,-5.15625,-5.5,-6.0625,-6.625,-6.0,-6.25,-7.15625,-7.53125,-8.5625,-8.09375,-8.625,2.34375,0.78125,1.15625,0.96875,-0.375,1.84375,0.375,-12.5625,-8.59375,-3.0625,-2.375,-6.375,-4.625,-9.28125,-10.125,-10.71875,-9.6875,-10.09375,-11.0625,-10.46875,-8.1875,-8.34375,-9.65625,-11.59375,-10.4375,-9.96875,-8.6875,-5.53125,-7.1875,-9.71875,-9.71875,-9.25,-8.40625,-9.46875,-8.875,-8.28125,-10.40625,-11.125,-8.34375,-7.53125,-9.3125,-10.25,-12.46875,-13.375,-13.21875,-12.0,-10.625,-10.375,32.15625,29.03125,31.65625,39.25,39.6875,33.09375,23.875,20.15625,26.375,31.25,28.71875,28.4375,29.21875,28.84375,31.875,31.28125,31.46875,33.09375,30.65625,28.5,29.03125,28.15625,26.375,31.1875,33.1875,30.84375,29.03125,26.9375,24.71875,25.8125,30.6875,31.09375,28.3125,25.5625,25.75,25.625,24.5625,24.9375,27.6875,26.28125,21.5625,24.96875,28.625,33.1875,29.65625,35.34375,31.625,24.28125,0.0
-0.5625,-1.65625,0.03125,0.625,7.03125,5.03125,-9.5625,-9.0625,-5.40625,-1.65625,-5.125,-1.1875,-1.71875,-0.625,-0.5625,-0.21875,-0.125,1.5,4.96875,-0.65625,0.84375,0.75,0.78125,0.875,1.21875,0.0,-3.09375,-1.21875,-1.90625,-1.03125,0.0,-0.90625,-2.90625,-3.59375,-3.5625,-3.3125,-5.15625,-5.5,-6.0625,-6.625,-6.0,-6.25,-7.15625,-7.53125,-8.5625,-8.09375,-8.625,-9.5625,0.78125,1.15625,0.96875,-0.375,1.84375,0.375,-12.5625,-8.59375,-3.0625,-2.375,-6.375,-4.625,-9.28125,-10.125,-10.71875,-9.6875,-10.09375,-11.0625,-10.46875,-8.1875,-8.34375,-9.65625,-11.59375,-10.4375,-9.96875,-8.6875,-5.53125,-7.1875,-9.71875,-9.71875,-9.25,-8.40625,-9.46875,-8.875,-8.28125,-10.40625,-11.125,-8.34375,-7.53125,-9.3125,-10.25,-12.46875,-13.375,-13.21875,-12.0,-10.625,-10.375,-9.25,29.03125,31.65625,39.25,39.6875,33.09375,23.875,20.15625,26.375,31.25,28.71875,28.4375,29.21875,28.84375,31.875,31.28125,31.46875,33.09375,30.65625,28.5,29.03125,28.15625,26.375,31.1875,33.1875,30.84375,29.03125,26.9375,24.71875,25.8125,30.6875,31.09375,28.3125,25.5625,25.75,25.625,24.5625,24.9375,27.6875,26.28125,21.5625,24.96875,28.625,33.1875,29.65625,35.34375,31.625,24.28125,25.5625,0.0
-1.65625,0.03125,0.625,7.03125,5.03125,-9.5625,-9.0625,-5.40625,-1.65625,-5.125,-1.1875,-1.71875,-0.625,-0.5625,-0.21875,-0.125,1.5,4.96875,-0.65625,0.84375,0.75,0.78125,0.875,1.21875,0.0,-3.09375,-1.21875,-1.90625,-1.03125,0.0,-0.90625,-2.90625,-3.59375,-3.5625,-3.3125,-5.15625,-5.5,-6.0625,-6.625,-6.0,-6.25,-7.15625,-7.53125,-8.5625,-8.09375,-8.625,-9.5625,-10.15625,1.15625,0.96875,-0.375,1.84375,0.375,-12.5625,-8.59375,-3.0625,-2.375,-6.375,-4.625,-9.28125,-10.125,-10.71875,-9.6875,-10.09375,-11.0625,-10.46875,-8.1875,-8.34375,-9.65625,-11.59375,-10.4375,-9.96875,-8.6875,-5.53125,-7.1875,-9.71875,-9.71875,-9.25,-8.40625,-9.46875,-8.875,-8.28125,-10.40625,-11.125,-8.34375,-7.53125,-9.3125,-10.25,-12.46875,-13.375,-13.21875,-12.0,-10.625,-10.375,-9.25,-7.75,31.65625,39.25,39.6875,33.09375,23.875,20.15625,26.375,31.25,28.71875,28.4375,29.21875,28.84375,31.875,31.28125,31.46875,33.09375,30.65625,28.5,29.03125,28.15625,26.375,31.1875,33.1875,30.84375,29.03125,26.9375,24.71875,25.8125,30.6875,31.09375,28.3125,25.5625,25.75,25.625,24.5625,24.9375,27.6875,26.28125,21.5625,24.96875,28.625,33.1875,29.65625,35.34375,31.625,24.28125,25.5625,29.75,0.0
0.03125,0.625,7.03125,5.03125,-9.5625,-9.0625,-5.40625,-1.65625,-5.125,-1.1875,-1.71875,-0.625,-0.5625,-0.21875,-0.125,1.5,4.96875,-0.65625,0.84375,0.75,0.78125,0.875,1.21875,0.0,-3.09375,-1.21875,-1.90625,-1.03125,0.0,-0.90625,-2.90625,-3.59375,-3.5625,-3.3125,-5.15625,-5.5,-6.0625,-6.625,-6.0,-6.25,-7.15625,-7.53125,-8.5625,-8.09375,-8.625,-9.5625,-10.15625,-10.75,0.96875,-0.375,1.84375,0.375,-12.5625,-8.59375,-3.0625,-2.375,-6.375,-4.625,-9.28125,-10.125,-10.71875,-9.6875,-10.09375,-11.0625,-10.46875,-8.1875,-8.34375,-9.65625,-11.59375,-10.4375,-9.96875,-8.6875,-5.53125,-7.1875,-9.71875,-9.71875,-9.25,-8.40625,-9.46875,-8.875,-8.28125,-10.40625,-11.125,-8.34375,-7.53125,-9.3125,-10.25,-12.46875,-13.375,-13.21875,-12.0,-10.625,-10.375,-9.25,-7.75,-6.5625,39.25,39.6875,33.09375,23.875,20.15625,26.375,31.25,28.71875,28.4375,29.21875,28.84375,31.875,31.28125,31.46875,33.09375,30.65625,28.5,29.03125,28.15625,26.375,31.1875,33.1875,30.84375,29.03125,26.9375,24.71875,25.8125,30.6875,31.09375,28.3125,25.5625,25.75,25.625,24.5625,24.9375,27.6875,26.28125,21.5625,24.96875,28.625,33.1875,29.65625,35.34375,31.625,24.28125,25.5625,29.75,30.96875,0.0
0.625,7.03125,5.03125,-9.5625,-9.0625,-5.40625,-1.65625,-5.125,-1.1875,-1.71875,-0.625,-0.5625,-0.21875,-0.125,1.5,4.96875,-0.65625,0.84375,0.75,0.78125,0.875,1.21875,0.0,-3.09375,-1.21875,-1.90625,-1.03125,0.0,-0.90625,-2.90625,-3.59375,-3.5625,-3.3125,-5.15625,-5.5,-6.0625,-6.625,-6.0,-6.25,-7.15625,-7.53125,-8.5625,-8.09375,-8.625,-9.5625,-10.15625,-10.75,-10.375,-0.375,1.84375,0.375,-12.5625,-8.59375,-3.0625,-2.375,-6.375,-4.625,-9.28125,-10.125,-10.71875,-9.6875,-10.09375,-11.0625,-10.46875,-8.1875,-8.34375,-9.65625,-11.59375,-10.4375,-9.96875,-8.6875,-5.53125,-7.1875,-9.71875,-9.71875,-9.25,-8.40625,-9.46875,-8.875,-8.28125,-10.40625,-11.125,-8.34375,-7.53125,-9.3125,-10.25,-12.46875,-13.375,-13.21875,-12.0,-10.625,-10.375,-9.25,-7.75,-6.5625,-4.96875,39.6875,33.09375,23.875,20.15625,26.375,31.25,28.71875,28.4375,29.21875,28.84375,31.875,31.28125,31.46875,33.09375,30.65625,28.5,29.03125,28.15625,26.375,31.1875,33.1875,30.84375,29.03125,26.9375,24.71875,25.8125,30.6875,31.09375,28.3125,25.5625,25.75,25.625,24.5625,24.9375,27.6875,26.28125,21.5625,24.96875,28.625,33.1875,29.65625,35.34375,31.625,24.28125,25.5625,29.75,30.96875,30.59375,0.0
7.03125,5.03125,-9.5625,-9.0625,-5.40625,-1.65625,-5.125,-1.1875,-1.71875,-0.625,-0.5625,-0.21875,-0.125,1.5,4.96875,-0.65625,0.84375,0.75,0.78125,0.875,1.21875,0.0,-3.09375,-1.21875,-1.90625,-1.03125,0.0,-0.90625,-2.90625,-3.59375,-3.5625,-3.3125,-5.15625,-5.5,-6.0625,-6.625,-6.0,-6.25,-7.15625,-7.53125,-8.5625,-8.09375,-8.625,-9.5625,-10.15625,-10.75,-10.375,-10.125,1.84375,0.375,-12.5625,-8.59375,-3.0625,-2.375,-6.375,-4.625,-9.28125,-10.125,-10.71875,-9.6875,-10.09375,-11.0625,-10.46875,-8.1875,-8.34375,-9.65625,-11.59375,-10.4375,-9.96875,-8.6875,-5.53125,-7.1875,-9.71875,-9.71875,-9.25,-8.40625,-9.46875,-8.875,-8.28125,-10.40625,-11.125,-8.34375,-7.53125,-9.3125,-10.25,-12.46875,-13.375,-13.21875,-12.0,-10.625,-10.375,-9.25,-7.75,-6.5625,-4.96875,-3.875,33.09375,23.875,20.15625,26.375,31.25,28.71875,28.4375,29.21875,28.84375,31.875,31.28125,31.46875,33.09375,30.65625,28.5,29.03125,28.15625,26.375,31.1875,33.1875,30.84375,29.03125,26.9375,24.71875,25.8125,30.6875,31.09375,28.3125,25.5625,25.75,25.625,24.5625,24.9375,27.6875,26.28125,21.5625,24.96875,28.625,33.1875,29.65625,35.34375,31.625,24.28125,25.5625,29.75,30.96875,30.59375,27.9375,0.0
5.03125,-9.5625,-9.0625,-5.40625,-1.65625,-5.125,-1.1875,-1.71875,-0.625,-0.5625,-0.21875,-0.125,1.5,4.96875,-0.65625,0.84375,0.75,0.78125,0.875,1.21875,0.0,-3.09375,-1.21875,-1.90625,-1.03125,0.0,-0.90625,-2.90625,-3.59375,-3.5625,-3.3125,-5.15625,-5.5,-6.0625,-6.625,-6.0,-6.25,-7.15625,-7.53125,-8.5625,-8.09375,-8.625,-9.5625,-10.15625,-10.75,-10.375,-10.125,-9.34375,0.375,-12.5625,-8.59375,-3.0625,-2.375,-6.375,-4.625,-9.28125,-10.125,-10.71875,-9.6875,-10.09375,-11.0625,-10.46875,-8.1875,-8.34375,-9.65625,-11.59375,-10.4375,-9.96875,-8.6875,-5.53125,-7.1875,-9.71875,-9.71875,-9.25,-8.40625,-9.46875,-8.875,-8.28125,-10.40625,-11.125,-8.34375,-7.53125,-9.3125,-10.25,-12.46875,-13.375,-13.21875,-12.0,-10.625,-10.375,-9.25,-7.75,-6.5625,-4.96875,-3.875,-3.53125,23.875,20.15625,26.375,31.25,28.71875,28.4375,29.21875,28.84375,31.875,31.28125,31.46875,33.09375,30.65625,28.5,29.03125,28.15625,26.375,31.1875,33.1875,30.84375,29.03125,26.9375,24.71875,25.8125,30.6875,31.09375,28.3125,25.5625,25.75,25.625,24.5625,24.9375,27.6875,26.28125,21.5625,24.96875,28.625,33.1875,29.65625,35.34375,31.625,24.28125,25.5625,29.75,30.96875,30.59375,27.9375,27.34375,0.0
-9.5625,-9.0625,-5.40625,-1.65625,-5.125,-1.1875,-1.71875,-0.625,-0.5625,-0.21875,-0.125,1.5,4.96875,-0.65625,0.84375,0.75,0.78125,0.875,1.21875,0.0,-3.09375,-1.21875,-1.90625,-1.03125,0.0,-0.90625,-2.90625,-3.59375,-3.5625,-3.3125,-5.15625,-5.5,-6.0625,-6.625,-6.0,-6.25,-7.15625,-7.53125,-8.5625,-8.09375,-8.625,-9.5625,-10.15625,-10.75,-10.375,-10.125,-9.34375,-9.46875,-12.5625,-8.59375,-3.0625,-2.375,-6.375,-4.625,-9.28125,-10.125,-10.71875,-9.6875,-10.09375,-11.0625,-10.46875,-8.1875,-8.34375,-9.65625,-11.59375,-10.4375,-9.96875,-8.6875,-5.53125,-7.1875,-9.71875,-9.71875,-9.25,-8.40625,-9.46875,-8.875,-8.28125,-10.40625,-11.125,-8.34375,-7.53125,-9.3125,-10.25,-12.46875,-13.375,-13.21875,-12.0,-10.625,-10.375,-9.25,-7.75,-6.5625,-4.96875,-3.875,-3.53125,-2.0625,20.15625,26.375,31.25,28.71875,28.4375,29.21875,28.84375,31.875,31.28125,31.46875,33.09375,30.65625,28.5,29.03125,28.15625,26.375,31.1875,33.1875,30.84375,29.03125,26.9375,24.71875,25.8125,30.6875,31.09375,28.3125,25.5625,25.75,25.625,24.5625,24.9375,27.6875,26.28125,21.5625,24.96875,28.625,33.1875,29.65625,35.34375,31.625,24.28125,25.5625,29.75,30.96875,30.59375,27.9375,27.34375,27.15625,0.0
-9.0625,-5.40625,-1.65625,-5.125,-1.1875,-1.71875,-0.625,-0.5625,-0.21875,-0.125,1.5,4.96875,-0.65625,0.84375,0.75,0.78125,0.875,1.21875,0.0,-3.09375,-1.21875,-1.90625,-1.03125,0.0,-0.90625,-2.90625,-3.59375,-3.5625,-3.3125,-5.15625,-5.5,-6.0625,-6.625,-6.0,-6.25,-7.15625,-7.53125,-8.5625,-8.09375,-8.625,-9.5625,-10.15625,-10.75,-10.375,-10.125,-9.34375,-9.46875,-10.3125,-8.59375,-3.0625,-2.375,-6.375,-4.625,-9.28125,-10.125,-10.71875,-9.6875,-10.09375,-11.0625,-10.46875,-8.1875,-8.34375,-9.65625,-11.59375,-10.4375,-9.96875,-8.6875,-5.53125,-7.1875,-9.71875,-9.71875,-9.25,-8.40625,-9.46875,-8.875,-8.28125,-10.40625,-11.125,-8.34375,-7.53125,-9.3125,-10.25,-12.46875,-13.375,-13.21875,-12.0,-10.625,-10.375,-9.25,-7.75,-6.5625,-4.96875,-3.875,-3.53125,-2.0625,-0.84375,26.375,31.25,28.71875,28.4375,29.21875,28.84375,31.875,31.28125,31.46875,33.09375,30.65625,28.5,29.03125,28.15625,26.375,31.1875,33.1875,30.84375,29.03125,26.9375,24.71875,25.8125,30.6875,31.09375,28.3125,25.5625,25.75,25.625,24.5625,24.9375,27.6875,26.28125,21.5625,24.96875,28.625,33.1875,29.65625,35.34375,31.625,24.28125,25.5625,29.75,30.96875,30.59375,27.9375,27.34375,27.15625,27.15625,0.0
-5.40625,-1.65625,-5.125,-1.1875,-1.71875,-0.625,-0.5625,-0.21875,-0.125,1.5,4.96875,-0.65625,0.84375,0.75,0.78125,0.875,1.21875,0.0,-3.09375,-1.21875,-1.90625,-1.03125,0.0,-0.90625,-2.90625,-3.59375,-3.5625,-3.3125,-5.15625,-5.5,-6.0625,-6.625,-6.0,-6.25,-7.15625,-7.53125,-8.5625,-8.09375,-8.625,-9.5625,-10.15625,-10.75,-10.375,-10.125,-9.34375,-9.46875,-10.3125,-10.46875,-3.0625,-2.375,-6.375,-4.625,-9.28125,-10.125,-10.71875,-9.6875,-10.09375,-11.0625,-10.46875,-8.1875,-8.34375,-9.65625,-11.59375,-10.4375,-9.96875,-8.6875,-5.53125,-7.1875,-9.71875,-9.71875,-9.25,-8.40625,-9.46875,-8.875,-8.28125,-10.40625,-11.125,-8.34375,-7.53125,-9.3125,-10.25,-12.46875,-13.375,-13.21875,-12.0,-10.625,-10.375,-9.25,-7.75,-6.5625,-4.96875,-3.875,-3.53125,-2.0625,-0.84375,-0.1875,31.25,28.71875,28.4375,29.21875,28.84375,31.875,31.28125,31.46875,33.09375,30.65625,28.5,29.03125,28.15625,26.375,31.1875,33.1875,30.84375,29.03125,26.9375,24.71875,25.8125,30.6875,31.09375,28.3125,25.5625,25.75,25.625,24.5625,24.9375,27.6875,26.28125,21.5625,24.96875,28.625,33.1875,29.65625,35.34375,31.625,24.28125,25.5625,29.75,30.96875,30.59375,27.9375,27.34375,27.15625,27.15625,25.90625,0.0
-1.65625,-5.125,-1.1875,-1.71875,-0.625,-0.5625,-0.21875,-0.125,1.5,4.96875,-0.65625,0.84375,0.75,0.78125,0.875,1.21875,0.0,-3.09375,-1.21875,-1.90625,-1.03125,0.0,-0.90625,-2.90625,-3.59375,-3.5625,-3.3125,-5.15625,-5.5,-6.0625,-6.625,-6.0,-6.25,-7.15625,-7.53125,-8.5625,-8.09375,-8.625,-9.5625,-10.15625,-10.75,-10.375,-10.125,-9.34375,-9.46875,-10.3125,-10.46875,-10.4375,-2.375,-6.375,-4.625,-9.28125,-10.125,-10.71875,-9.6875,-10.09375,-11.0625,-10.46875,-8.1875,-8.34375,-9.65625,-11.59375,-10.4375,-9.96875,-8.6875,-5.53125,-7.1875,-9.71875,-9.71875,-9.25,-8.40625,-9.46875,-8.875,-8.28125,-10.40625,-11.125,-8.34375,-7.53125,-9.3125,-10.25,-12.46875,-13.375,-13.21875,-12.0,-10.625,-10.375,-9.25,-7.75,-6.5625,-4.96875,-3.875,-3.53125,-2.0625,-0.84375,-0.1875,0.875,28.71875,28.4375,29.21875,28.84375,31.875,31.28125,31.46875,33.09375,30.65625,28.5,29.03125,28.15625,26.375,31.1875,33.1875,30.84375,29.03125,26.9375,24.71875,25.8125,30.6875,31.09375,28.3125,25.5625,25.75,25.625,24.5625,24.9375,27.6875,26.28125,21.5625,24.96875,28.625,33.1875,29.65625,35.34375,31.625,24.28125,25.5625,29.75,30.96875,30.59375,27.9375,27.34375,27.15625,27.15625,25.90625,27.21875,0.0
-5.125,-1.1875,-1.71875,-0.625,-0.5625,-0.21875,-0.125,1.5,4.96875,-0.65625,0.84375,0.75,0.78125,0.875,1.21875,0.0,-3.09375,-1.21875,-1.90625,-1.03125,0.0,-0.90625,-2.90625,-3.59375,-3.5625,-3.3125,-5.15625,-5.5,-6.0625,-6.625,-6.0,-6.25,-7.15625,-7.53125,-8.5625,-8.09375,-8.625,-9.5625,-10.15625,-10.75,-10.375,-10.125,-9.34375,-9.46875,-10.3125,-10.46875,-10.4375,-10.71875,-6.375,-4.625,-9.28125,-10.125,-10.71875,-9.6875,-10.09375,-11.0625,-10.46875,-8.1875,-8.34375,-9.65625,-11.59375,-10.4375,-9.96875,-8.6875,-5.53125,-7.1875,-9.71875,-9.71875,-9.25,-8.40625,-9.46875,-8.875,-8.28125,-10.40625,-11.125,-8.34375,-7.53125,-9.3125,-10.25,-12.46875,-13.375,-13.21875,-12.0,-10.625,-10.375,-9.25,-7.75,-6.5625,-4.96875,-3.875,-3.53125,-2.0625,-0.84375,-0.1875,0.875,-0.09375,28.4375,29.21875,28.84375,31.875,31.28125,31.46875,33.09375,30.65625,28.5,29.03125,28.15625,26.375,31.1875,33.1875,30.84375,29.03125,26.9375,24.71875,25.8125,30.6875,31.09375,28.3125,25.5625,25.75,25.625,24.5625,24.9375,27.6875,26.28125,21.5625,24.96875,28.625,33.1875,29.65625,35.34375,31.625,24.28125,25.5625,29.75,30.96875,30.59375,27.9375,27.34375,27.15625,27.15625,25.90625,27.21875,28.65625,0.0
-1.1875,-1.71875,-0.625,-0.5625,-0.21875,-0.125,1.5,4.96875,-0.65625,0.84375,0.75,0.78125,0.875,1.21875,0.0,-3.09375,-1.21875,-1.90625,-1.03125,0.0,-0.90625,-2.90625,-3.59375,-3.5625,-3.3125,-5.15625,-5.5,-6.0625,-6.625,-6.0,-6.25,-7.15625,-7.53125,-8.5625,-8.09375,-8.625,-9.5625,-10.15625,-10.75,-10.375,-10.125,-9.34375,-9.46875,-10.3125,-10.46875,-10.4375,-10.71875,-10.84375,-4.625,-9.28125,-10.125,-10.71875,-9.6875,-10.09375,-11.0625,-10.46875,-8.1875,-8.34375,-9.65625,-11.59375,-10.4375,-9.96875,-8.6875,-5.53125,-7.1875,-9.71875,-9.71875,-9.25,-8.40625,-9.46875,-8.875,-8.28125,-10.40625,-11.125,-8.34375,-7.53125,-9.3125,-10.25,-12.46875,-13.375,-13.21875,-12.0,-10.625,-10.375,-9.25,-7.75,-6.5625,-4.96875,-3.875,-3.53125,-2.0625,-0.84375,-0.1875,0.875,-0.09375,0.8125,29.21875,28.84375,31.875,31.28125,31.46875,33.09375,30.65625,28.5,29.03125,28.15625,26.375,31.1875,33.1875,30.84375,29.03125,26.9375,24.71875,25.8125,30.6875,31.09375,28.3125,25.5625,25.75,25.625,24.5625,24.9375,27.6875,26.28125,21.5625,24.96875,28.625,33.1875,29.65625,35.34375,31.625,24.28125,25.5625,29.75,30.96875,30.59375,27.9375,27.34375,27.15625,27.15625,25.90625,27.21875,28.65625,32.09375,0.0
-1.71875,-0.625,-0.5625,-0.21875,-0.125,1.5,4.96875,-0.65625,0.84375,0.75,0.78125,0.875,1.21875,0.0,-3.09375,-1.21875,-1.90625,-1.03125,0.0,-0.90625,-2.90625,-3.59375,-3.5625,-3.3125,-5.15625,-5.5,-6.0625,-6.625,-6.0,-6.25,-7.15625,-7.53125,-8.5625,-8.09375,-8.625,-9.5625,-10.15625,-10.75,-10.375,-10.125,-9.34375,-9.46875,-10.3125,-10.46875,-10.4375,-10.71875,-10.84375,-10.125,-9.28125,-10.125,-10.71875,-9.6875,-10.09375,-11.0625,-10.46875,-8.1875,-8.34375,-9.65625,-11.59375,-10.4375,-9.96875,-8.6875,-5.53125,-7.1875,-9.71875,-9.71875,-9.25,-8.40625,-9.46875,-8.875,-8.28125,-10.40625,-11.125,-8.34375,-7.53125,-9.3125,-10.25,-12.46875,-13.375,-13.21875,-12.0,-10.625,-10.375,-9.25,-7.75,-6.5625,-4.96875,-3.875,-3.53125,-2.0625,-0.84375,-0.1875,0.875,-0.09375,0.8125,0.8125,28.84375,31.875,31.28125,31.46875,33.09375,30.65625,28.5,29.03125,28.15625,26.375,31.1875,33.1875,30.84375,29.03125,26.9375,24.71875,25.8125,30.6875,31.09375,28.3125,25.5625,25.75,25.625,24.5625,24.9375,27.6875,26.28125,21.5625,24.96875,28.625,33.1875,29.65625,35.34375,31.625,24.28125,25.5625,29.75,30.96875,30.59375,27.9375,27.34375,27.15625,27.15625,25.90625,27.21875,28.65625,32.09375,31.125,0.0
-0.625,-0.5625,-0.21875,-0.125,1.5,4.96875,-0.65625,0.84375,0.75,0.78125,0.875,1.21875,0.0,-3.09375,-1.21875,-1.90625,-1.03125,0.0,-0.90625,-2.90625,-3.59375,-3.5625,-3.3125,-5.15625,-5.5,-6.0625,-6.625,-6.0,-6.25,-7.15625,-7.53125,-8.5625,-8.09375,-8.625,-9.5625,-10.15625,-10.75,-10.375,-10.125,-9.34375,-9.46875,-10.3125,-10.46875,-10.4375,-10.71875,-10.84375,-10.125,-10.375,-10.125,-10.71875,-9.6875,-10.09375,-11.0625,-10.46875,-8.1875,-8.34375,-9.65625,-11.59375,-10.4375,-9.96875,-8.6875,-5.53125,-7.1875,-9.71875,-9.71875,-9.25,-8.40625,-9.46875,-8.875,-8.28125,-10.40625,-11.125,-8.34375,-7.53125,-9.3125,-10.25,-12.46875,-13.375,-13.21875,-12.0,-10.625,-10.375,-9.25,-7.75,-6.5625,-4.96875,-3.875,-3.53125,-2.0625,-0.84375,-0.1875,0.875,-0.09375,0.8125,0.8125,2.34375,31.875,31.28125,31.46875,33.09375,30.65625,28.5,29.03125,28.15625,26.375,31.1875,33.1875,30.84375,29.03125,26.9375,24.71875,25.8125,30.6875,31.09375,28.3125,25.5625,25.75,25.625,24.5625,24.9375,27.6875,26.28125,21.5625,24.96875,28.625,33.1875,29.65625,35.34375,31.625,24.28125,25.5625,29.75,30.96875,30.59375,27.9375,27.34375,27.15625,27.15625,25.90625,27.21875,28.65625,32.09375,31.125,29.625,0.0
-0.5625,-0.21875,-0.125,1.5,4.96875,-0.65625,0.84375,0.75,0.78125,0.875,1.21875,0.0,-3.09375,-1.21875,-1.90625,-1.03125,0.0,-0.90625,-2.90625,-3.59375,-3.5625,-3.3125,-5.15625,-5.5,-6.0625,-6.625,-6.0,-6.25,-7.15625,-7.53125,-8.5625,-8.09375,-8.625,-9.5625,-10.15625,-10.75,-10.375,-10.125,-9.34375,-9.46875,-10.3125,-10.46875,-10.4375,-10.71875,-10.84375,-10.125,-10.375,-10.1875,-10.71875,-9.6875,-10.09375,-11.0625,-10.46875,-8.1875,-8.34375,-9.65625,-11.59375,-10.4375,-9.96875,-8.6875,-5.53125,-7.1875,-9.71875,-9.71875,-9.25,-8.40625,-9.46875,-8.875,-8.28125,-10.40625,-11.125,-8.34375,-7.53125,-9.3125,-10.25,-12.46875,-13.375,-13.21875,-12.0,-10.625,-10.375,-9.25,-7.75,-6.5625,-4.96875,-3.875,-3.53125,-2.0625,-0.84375,-0.1875,0.875,-0.09375,0.8125,0.8125,2.34375,3.09375,31.28125,31.46875,33.09375,30.65625,28.5,29.03125,28.15625,26.375,31.1875,33.1875,30.84375,29.03125,26.9375,24.71875,25.8125,30.6875,31.09375,28.3125,25.5625,25.75,25.625,24.5625,24.9375,27.6875,26.28125,21.5625,24.96875,28.625,33.1875,29.65625,35.34375,31.625,24.28125,25.5625,29.75,30.96875,30.59375,27.9375,27.34375,27.15625,27.15625,25.90625,27.21875,28.65625,32.09375,31.125,29.625,28.03125,0.0
-0.21875,-0.125,1.5,4.96875,-0.65625,0.84375,0.75,0.78125,0.875,1.21875,0.0,-3.09375,-1.21875,-1.90625,-1.03125,0.0,-0.90625,-2.90625,-3.59375,-3.5625,-3.3125,-5.15625,-5.5,-6.0625,-6.625,-6.0,-6.25,-7.15625,-7.53125,-8.5625,-8.09375,-8.625,-9.5625,-10.15625,-10.75,-10.375,-10.125,-9.34375,-9.46875,-10.3125,-10.46875,-10.4375,-10.71875,-10.84375,-10.125,-10.375,-10.1875,-10.125,-9.6875,-10.09375,-11.0625,-10.46875,-8.1875,-8.34375,-9.65625,-11.59375,-10.4375,-9.96875,-8.6875,-5.53125,-7.1875,-9.71875,-9.71875,-9.25,-8.40625,-9.46875,-8.875,-8.28125,-10.40625,-11.125,-8.34375,-7.53125,-9.3125,-10.25,-12.46875,-13.375,-13.21875,-12.0,-10.625,-10.375,-9.25,-7.75,-6.5625,-4.96875,-3.875,-3.53125,-2.0625,-0.84375,-0.1875,0.875,-0.09375,0.8125,0.8125,2.34375,3.09375,4.34375,31.46875,33.09375,30.65625,28.5,29.03125,28.15625,26.375,31.1875,33.1875,30.84375,29.03125,26.9375,24.71875,25.8125,30.6875,31.09375,28.3125,25.5625,25.75,25.625,24.5625,24.9375,27.6875,26.28125,21.5625,24.96875,28.625,33.1875,29.65625,35.34375,31.625,24.28125,25.5625,29.75,30.96875,30.59375,27.9375,27.34375,27.15625,27.15625,25.90625,27.21875,28.65625,32.09375,31.125,29.625,28.03125,27.9375,0.0
-0.125,1.5,4.96875,-0.65625,0.84375,0.75,0.78125,0.875,1.21875,0.0,-3.09375,-1.21875,-1.90625,-1.03125,0.0,-0.90625,-2.90625,-3.59375,-3.5625,-3.3125,-5.15625,-5.5,-6.0625,-6.625,-6.0,-6.25,-7.15625,-7.53125,-8.5625,-8.09375,-8.625,-9.5625,-10.15625,-10.75,-10.375,-10.125,-9.34375,-9.46875,-10.3125,-10.46875,-10.4375,-10.71875,-10.84375,-10.125,-10.375,-10.1875,-10.125,-10.125,-10.09375,-11.0625,-10.46875,-8.1875,-8.34375,-9.65625,-11.59375,-10.4375,-9.96875,-8.6875,-5.53125,-7.1875,-9.71875,-9.71875,-9.25,-8.40625,-9.46875,-8.875,-8.28125,-10.40625,-11.125,-8.34375,-7.53125,-9.3125,-10.25,-12.46875,-13.375,-13.21875,-12.0,-10.625,-10.375,-9.25,-7.75,-6.5625,-4.96875,-3.875,-3.53125,-2.0625,-0.84375,-0.1875,0.875,-0.09375,0.8125,0.8125,2.34375,3.09375,4.34375,3.125,33.09375,30.65625,28.5,29.03125,28.15625,26.375,31.1875,33.1875,30.84375,29.03125,26.9375,24.71875,25.8125,30.6875,31.09375,28.3125,25.5625,25.75,25.625,24.5625,24.9375,27.6875,26.28125,21.5625,24.96875,28.625,33.1875,29.65625,35.34375,31.625,24.28125,25.5625,29.75,30.96875,30.59375,27.9375,27.34375,27.15625,27.15625,25.90625,27.21875,28.65625,32.09375,31.125,29.625,28.03125,27.9375,27.59375,0.0
1.5,4.96875,-0.65625,0.84375,0.75,0.78125,0.875,1.21875,0.0,-3.09375,-1.21875,-1.90625,-1.03125,0.0,-0.90625,-2.90625,-3.59375,-3.5625,-3.3125,-5.15625,-5.5,-6.0625,-6.625,-6.0,-6.25,-7.15625,-7.53125,-8.5625,-8.09375,-8.625,-9.5625,-10.15625,-10.75,-10.375,-10.125,-9.34375,-9.46875,-10.3125,-10.46875,-10.4375,-10.71875,-10.84375,-10.125,-10.375,-10.1875,-10.125,-10.125,-10.25,-11.0625,-10.46875,-8.1875,-8.34375,-9.65625,-11.59375,-10.4375,-9.96875,-8.6875,-5.53125,-7.1875,-9.71875,-9.71875,-9.25,-8.40625,-9.46875,-8.875,-8.28125,-10.40625,-11.125,-8.34375,-7.53125,-9.3125,-10.25,-12.46875,-13.375,-13.21875,-12.0,-10.625,-10.375,-9.25,-7.75,-6.5625,-4.96875,-3.875,-3.53125,-2.0625,-0.84375,-0.1875,0.875,-0.09375,0.8125,0.8125,2.34375,3.09375,4.34375,3.125,2.0625,30.65625,28.5,29.03125,28.15625,26.375,31.1875,33.1875,30.84375,29.03125,26.9375,24.71875,25.8125,30.6875,31.09375,28.3125,25.5625,25.75,25.625,24.5625,24.9375,27.6875,26.28125,21.5625,24.96875,28.625,33.1875,29.65625,35.34375,31.625,24.28125,25.5625,29.75,30.96875,30.59375,27.9375,27.34375,27.15625,27.15625,25.90625,27.21875,28.65625,32.09375,31.125,29.625,28.03125,27.9375,27.59375,28.46875,0.0
4.96875,-0.65625,0.84375,0.75,0.78125,0.875,1.21875,0.0,-3.09375,-1.21875,-1.90625,-1.03125,0.0,-0.90625,-2.90625,-3.59375,-3.5625,-3.3125,-5.15625,-5.5,-6.0625,-6.625,-6.0,-6.25,-7.15625,-7.53125,-8.5625,-8.09375,-8.625,-9.5625,-10.15625,-10.75,-10.375,-10.125,-9.34375,-9.46875,-10.3125,-10.46875,-10.4375,-10.71875,-10.84375,-10.125,-10.375,-10.1875,-10.125,-10.125,-10.25,-10.4375,-10.46875,-8.1875,-8.34375,-9.65625,-11.59375,-10.4375,-9.96875,-8.6875,-5.53125,-7.1875,-9.71875,-9.71875,-9.25,-8.40625,-9.46875,-8.875,-8.28125,-10.40625,-11.125,-8.34375,-7.53125,-9.3125,-10.25,-12.46875,-13.375,-13.21875,-12.0,-10.625,-10.375,-9.25,-7.75,-6.5625,-4.96875,-3.875,-3.53125,-2.0625,-0.84375,-0.1875,0.875,-0.09375,0.8125,0.8125,2.34375,3.09375,4.34375,3.125,2.0625,3.3125,28.5,29.03125,28.15625,26.375,31.1875,33.1875,30.84375,29.03125,26.9375,24.71875,25.8125,30.6875,31.09375,28.3125,25.5625,25.75,25.625,24.5625,24.9375,27.6875,26.28125,21.5625,24.96875,28.625,33.1875,29.65625,35.34375,31.625,24.28125,25.5625,29.75,30.96875,30.59375,27.9375,27.34375,27.15625,27.15625,25.90625,27.21875,28.65625,32.09375,31.125,29.625,28.03125,27.9375,27.59375,28.46875,28.75,0.0
-0.65625,0.84375,0.75,0.78125,0.875,1.21875,0.0,-3.09375,-1.21875,-1.90625,-1.03125,0.0,-0.90625,-2.90625,-3.59375,-3.5625,-3.3125,-5.15625,-5.5,-6.0625,-6.625,-6.0,-6.25,-7.15625,-7.53125,-8.5625,-8.09375,-8.625,-9.5625,-10.15625,-10.75,-10.375,-10.125,-9.34375,-9.46875,-10.3125,-10.46875,-10.4375,-10.71875,-10.84375,-10.125,-10.375,-10.1875,-10.125,-10.125,-10.25,-10.4375,-9.1875,-8.1875,-8.34375,-9.65625,-11.59375,-10.4375,-9.96875,-8.6875,-5.53125,-7.1875,-9.71875,-9.71875,-9.25,-8.40625,-9.46875,-8.875,-8.28125,-10.40625,-11.125,-8.34375,-7.53125,-9.3125,-10.25,-12.46875,-13.375,-13.21875,-12.0,-10.625,-10.375,-9.25,-7.75,-6.5625,-4.96875,-3.875,-3.53125,-2.0625,-0.84375,-0.1875,0.875,-0.09375,0.8125,0.8125,2.34375,3.09375,4.34375,3.125,2.0625,3.3125,3.59375,29.03125,28.15625,26.375,31.1875,33.1875,30.84375,29.03125,26.9375,24.71875,25.8125,30.6875,31.09375,28.3125,25.5625,25.75,25.625,24.5625,24.9375,27.6875,26.28125,21.5625,24.96875,28.625,33.1875,29.65625,35.34375,31.625,24.28125,25.5625,29.75,30.96875,30.59375,27.9375,27.34375,27.15625,27.15625,25.90625,27.21875,28.65625,32.09375,31.125,29.625,28.03125,27.9375,27.59375,28.46875,28.75,28.21875,0.0
0.84375,0.75,0.78125,0.875,1.21875,0.0,-3.09375,-1.21875,-1.90625,-1.03125,0.0,-0.90625,-2.90625,-3.59375,-3.5625,-3.3125,-5.15625,-5.5,-6.0625,-6.625,-6.0,-6.25,-7.15625,-7.53125,-8.5625,-8.09375,-8.625,-9.5625,-10.15625,-10.75,-10.375,-10.125,-9.34375,-9.46875,-10.3125,-10.46875,-10.4375,-10.71875,-10.84375,-10.125,-10.375,-10.1875,-10.125,-10.125,-10.25,-10.4375,-9.1875,-8.90625,-8.34375,-9.65625,-11.59375,-10.4375,-9.96875,-8.6875,-5.53125,-7.1875,-9.71875,-9.71875,-9.25,-8.40625,-9.46875,-8.875,-8.28125,-10.40625,-11.125,-8.34375,-7.53125,-9.3125,-10.25,-12.46875,-13.375,-13.21875,-12.0,-10.625,-10.375,-9.25,-7.75,-6.5625,-4.96875,-3.875,-3.53125,-2.0625,-0.84375,-0.1875,0.875,-0.09375,0.8125,0.8125,2.34375,3.09375,4.34375,3.125,2.0625,3.3125,3.59375,3.90625,28.15625,26.375,31.1875,33.1875,30.84375,29.03125,26.9375,24.71875,25.8125,30.6875,31.09375,28.3125,25.5625,25.75,25.625,24.5625,24.9375,27.6875,26.28125,21.5625,24.96875,28.625,33.1875,29.65625,35.34375,31.625,24.28125,25.5625,29.75,30.96875,30.59375,27.9375,27.34375,27.15625,27.15625,25.90625,27.21875,28.65625,32.09375,31.125,29.625,28.03125,27.9375,27.59375,28.46875,28.75,28.21875,27.53125,0.0
0.75,0.78125,0.875,1.21875,0.0,-3.09375,-1.21875,-1.90625,-1.03125,0.0,-0.90625,-2.90625,-3.59375,-3.5625,-3.3125,-5.15625,-5.5,-6.0625,-6.625,-6.0,-6.25,-7.15625,-7.53125,-8.5625,-8.09375,-8.625,-9.5625,-10.15625,-10.75,-10.375,-10.125,-9.34375,-9.46875,-10.3125,-10.46875,-10.4375,-10.71875,-10.84375,-10.125,-10.375,-10.1875,-10.125,-10.125,-10.25,-10.4375,-9.1875,-8.90625,-9.09375,-9.65625,-11.59375,-10.4375,-9.96875,-8.6875,-5.53125,-7.1875,-9.71875,-9.71875,-9.25,-8.40625,-9.46875,-8.875,-8.28125,-10.40625,-11.125,-8.34375,-7.53125,-9.3125,-10.25,-12.46875,-13.375,-13.21875,-12.0,-10.625,-10.375,-9.25,-7.75,-6.5625,-4.96875,-3.875,-3.53125,-2.0625,-0.84375,-0.1875,0.875,-0.09375,0.8125,0.8125,2.34375,3.09375,4.34375,3.125,2.0625,3.3125,3.59375,3.90625,3.21875,26.375,31.1875,33.1875,30.84375,29.03125,26.9375,24.71875,25.8125,30.6875,31.09375,28.3125,25.5625,25.75,25.625,24.5625,24.9375,27.6875,26.28125,21.5625,24.96875,28.625,33.1875,29.65625,35.34375,31.625,24.28125,25.5625,29.75,30.96875,30.59375,27.9375,27.34375,27.15625,27.15625,25.90625,27.21875,28.65625,32.09375,31.125,29.625,28.03125,27.9375,27.59375,28.46875,28.75,28.21875,27.53125,23.40625,0.0
0.78125,0.875,1.21875,0.0,-3.09375,-1.21875,-1.90625,-1.03125,0.0,-0.90625,-2.90625,-3.59375,-3.5625,-3.3125,-5.15625,-5.5,-6.0625,-6.625,-6.0,-6.25,-7.15625,-7.53125,-8.5625,-8.09375,-8.625,-9.5625,-10.15625,-10.75,-10.375,-10.125,-9.34375,-9.46875,-10.3125,-10.46875,-10.4375,-10.71875,-10.84375,-10.125,-10.375,-10.1875,-10.125,-10.125,-10.25,-10.4375,-9.1875,-8.90625,-9.09375,-10.40625,-11.59375,-10.4375,-9.96875,-8.6875,-5.53125,-7.1875,-9.71875,-9.71875,-9.25,-8.40625,-9.46875,-8.875,-8.28125,-10.40625,-11.125,-8.34375,-7.53125,-9.3125,-10.25,-12.46875,-13.375,-13.21875,-12.0,-10.625,-10.375,-9.25,-7.75,-6.5625,-4.96875,-3.875,-3.53125,-2.0625,-0.84375,-0.1875,0.875,-0.09375,0.8125,0.8125,2.34375,3.09375,4.34375,3.125,2.0625,3.3125,3.59375,3.90625,3.21875,2.34375,31.1875,33.1875,30.84375,29.03125,26.9375,24.71875,25.8125,30.6875,31.09375,28.3125,25.5625,25.75,25.625,24.5625,24.9375,27.6875,26.28125,21.5625,24.96875,28.625,33.1875,29.65625,35.34375,31.625,24.28125,25.5625,29.75,30.96875,30.59375,27.9375,27.34375,27.15625,27.15625,25.90625,27.21875,28.65625,32.09375,31.125,29.625,28.03125,27.9375,27.59375,28.46875,28.75,28.21875,27.53125,23.40625,21.875,0.0
0.875,1.21875,0.0,-3.09375,-1.21875,-1.90625,-1.03125,0.0,-0.90625,-2.90625,-3.59375,-3.5625,-3.3125,-5.15625,-5.5,-6.0625,-6.625,-6.0,-6.25,-7.15625,-7.53125,-8.5625,-8.09375,-8.625,-9.5625,-10.15625,-10.75,-10.375,-10.125,-9.34375,-9.46875,-10.3125,-10.46875,-10.4375,-10.71875,-10.84375,-10.125,-10.375,-10.1875,-10.125,-10.125,-10.25,-10.4375,-9.1875,-8.90625,-9.09375,-10.40625,-11.59375,-10.4375,-9.96875,-8.6875,-5.53125,-7.1875,-9.71875,-9.71875,-9.25,-8.40625,-9.46875,-8.875,-8.28125,-10.40625,-11.125,-8.34375,-7.53125,-9.3125,-10.25,-12.46875,-13.375,-13.21875,-12.0,-10.625,-10.375,-9.25,-7.75,-6.5625,-4.96875,-3.875,-3.53125,-2.0625,-0.84375,-0.1875,0.875,-0.09375,0.8125,0.8125,2.34375,3.09375,4.34375,3.125,2.0625,3.3125,3.59375,3.90625,3.21875,2.34375,3.6875,33.1875,30.84375,29.03125,26.9375,24.71875,25.8125,30.6875,31.09375,28.3125,25.5625,25.75,25.625,24.5625,24.9375,27.6875,26.28125,21.5625,24.96875,28.625,33.1875,29.65625,35.34375,31.625,24.28125,25.5625,29.75,30.96875,30.59375,27.9375,27.34375,27.15625,27.15625,25.90625,27.21875,28.65625,32.09375,31.125,29.625,28.03125,27.9375,27.59375,28.46875,28.75,28.21875,27.53125,23.40625,21.875,27.53125,0.0
1.21875,0.0,-3.09375,-1.21875,-1.90625,-1.03125,0.0,-0.90625,-2.90625,-3.59375,-3.5625,-3.3125,-5.15625,-5.5,-6.0625,-6.625,-6.0,-6.25,-7.15625,-7.53125,-8.5625,-8.09375,-8.625,-9.5625,-10.15625,-10.75,-10.375,-10.125,-9.34375,-9.46875,-10.3125,-10.46875,-10.4375,-10.71875,-10.84375,-10.125,-10.375,-10.1875,-10.125,-10.125,-10.25,-10.4375,-9.1875,-8.90625,-9.09375,-10.40625,-11.59375,-12.46875,-9.96875,-8.6875,-5.53125,-7.1875,-9.71875,-9.71875,-9.25,-8.40625,-9.46875,-8.875,-8.28125,-10.40625,-11.125,-8.34375,-7.53125,-9.3125,-10.25,-12.46875,-13.375,-13.21875,-12.0,-10.625,-10.375,-9.25,-7.75,-6.5625,-4.96875,-3.875,-3.53125,-2.0625,-0.84375,-0.1875,0.875,-0.09375,0.8125,0.8125,2.34375,3.09375,4.34375,3.125,2.0625,3.3125,3.59375,3.90625,3.21875,2.34375,3.6875,5.96875,30.84375,29.03125,26.9375,24.71875,25.8125,30.6875,31.09375,28.3125,25.5625,25.75,25.625,24.5625,24.9375,27.6875,26.28125,21.5625,24.96875,28.625,33.1875,29.65625,35.34375,31.625,24.28125,25.5625,29.75,30.96875,30.59375,27.9375,27.34375,27.15625,27.15625,25.90625,27.21875,28.65625,32.09375,31.125,29.625,28.03125,27.9375,27.59375,28.46875,28.75,28.21875,27.53125,23.40625,21.875,27.53125,32.8125,0.0
0.0,-3.09375,-1.21875,-1.90625,-1.03125,0.0,-0.90625,-2.90625,-3.59375,-3.5625,-3.3125,-5.15625,-5.5,-6.0625,-6.625,-6.0,-6.25,-7.15625,-7.53125,-8.5625,-8.09375,-8.625,-9.5625,-10.15625,-10.75,-10.375,-10.125,-9.34375,-9.46875,-10.3125,-10.46875,-10.4375,-10.71875,-10.84375,-10.125,-10.375,-10.1875,-10.125,-10.125,-10.25,-10.4375,-9.1875,-8.90625,-9.09375,-10.40625,-11.59375,-12.46875,-9.3125,-8.6875,-5.53125,-7.1875,-9.71875,-9.71875,-9.25,-8.40625,-9.46875,-8.875,-8.28125,-10.40625,-11.125,-8.34375,-7.53125,-9.3125,-10.25,-12.46875,-13.375,-13.21875,-12.0,-10.625,-10.375,-9.25,-7.75,-6.5625,-4.96875,-3.875,-3.53125,-2.0625,-0.84375,-0.1875,0.875,-0.09375,0.8125,0.8125,2.34375,3.09375,4.34375,3.125,2.0625,3.3125,3.59375,3.90625,3.21875,2.34375,3.6875,5.96875,8.3125,29.03125,26.9375,24.71875,25.8125,30.6875,31.09375,28.3125,25.5625,25.75,25.625,24.5625,24.9375,27.6875,26.28125,21.5625,24.96875,28.625,33.1875,29.65625,35.34375,31.625,24.28125,25.5625,29.75,30.96875,30.59375,27.9375,27.34375,27.15625,27.15625,25.90625,27.21875,28.65625,32.09375,31.125,29.625,28.03125,27.9375,27.59375,28.46875,28.75,28.21875,27.53125,23.40625,21.875,27.53125,32.8125,29.8125,0.0
-3.09375,-1.21875,-1.90625,-1.03125,0.0,-0.90625,-2.90625,-3.59375,-3.5625,-3.3125,-5.15625,-5.5,-6.0625,-6.625,-6.0,-6.25,-7.15625,-7.53125,-8.5625,-8.09375,-8.625,-9.5625,-10.15625,-10.75,-10.375,-10.125,-9.34375,-9.46875,-10.3125,-10.46875,-10.4375,-10.71875,-10.84375,-10.125,-10.375,-10.1875,-10.125,-10.125,-10.25,-10.4375,-9.1875,-8.90625,-9.09375,-10.40625,-11.59375,-12.46875,-9.3125,-8.625,-5.53125,-7.1875,-9.71875,-9.71875,-9.25,-8.40625,-9.46875,-8.875,-8.28125,-10.40625,-11.125,-8.34375,-7.53125,-9.3125,-10.25,-12.46875,-13.375,-13.21875,-12.0,-10.625,-10.375,-9.25,-7.75,-6.5625,-4.96875,-3.875,-3.53125,-2.0625,-0.84375,-0.1875,0.875,-0.09375,0.8125,0.8125,2.34375,3.09375,4.34375,3.125,2.0625,3.3125,3.59375,3.90625,3.21875,2.34375,3.6875,5.96875,8.3125,6.8125,26.9375,24.71875,25.8125,30.6875,31.09375,28.3125,25.5625,25.75,25.625,24.5625,24.9375,27.6875,26.28125,21.5625,24.96875,28.625,33.1875,29.65625,35.34375,31.625,24.28125,25.5625,29.75,30.96875,30.59375,27.9375,27.34375,27.15625,27.15625,25.90625,27.21875,28.65625,32.09375,31.125,29.625,28.03125,27.9375,27.59375,28.46875,28.75,28.21875,27.53125,23.40625,21.875,27.53125,32.8125,29.8125,27.28125,0.0
-1.21875,-1.90625,-1.03125,0.0,-0.90625,-2.90625,-3.59375,-3.5625,-3.3125,-5.15625,-5.5,-6.0625,-6.625,-6.0,-6.25,-7.15625,-7.53125,-8.5625,-8.09375,-8.625,-9.5625,-10.15625,-10.75,-10.375,-10.125,-9.34375,-9.46875,-10.3125,-10.46875,-10.4375,-10.71875,-10.84375,-10.125,-10.375,-10.1875,-10.125,-10.125,-10.25,-10.4375,-9.1875,-8.90625,-9.09375,-10.40625,-11.59375,-12.46875,-9.3125,-8.625,-9.625,-7.1875,-9.71875,-9.71875,-9.25,-8.40625,-9.46875,-8.875,-8.28125,-10.40625,-11.125,-8.34375,-7.53125,-9.3125,-10.25,-12.46875,-13.375,-13.21875,-12.0,-10.625,-10.375,-9.25,-7.75,-6.5625,-4.96875,-3.875,-3.53125,-2.0625,-0.84375,-0.1875,0.875,-0.09375,0.8125,0.8125,2.34375,3.09375,4.34375,3.125,2.0625,3.3125,3.59375,3.90625,3.21875,2.34375,3.6875,5.96875,8.3125,6.8125,5.375,24.71875,25.8125,30.6875,31.09375,28.3125,25.5625,25.75,25.625,24.5625,24.9375,27.6875,26.28125,21.5625,24.96875,28.625,33.1875,29.65625,35.34375,31.625,24.28125,25.5625,29.75,30.96875,30.59375,27.9375,27.34375,27.15625,27.15625,25.90625,27.21875,28.65625,32.09375,31.125,29.625,28.03125,27.9375,27.59375,28.46875,28.75,28.21875,27.53125,23.40625,21.875,27.53125,32.8125,29.8125,27.28125,32.5,0.0
-1.90625,-1.03125,0.0,-0.90625,-2.90625,-3.59375,-3.5625,-3.3125,-5.15625,-5.5,-6.0625,-6.625,-6.0,-6.25,-7.15625,-7.53125,-8.5625,-8.09375,-8.625,-9.5625,-10.15625,-10.75,-10.375,-10.125,-9.34375,-9.46875,-10.3125,-10.46875,-10.4375,-10.71875,-10.84375,-10.125,-10.375,-10.1875,-10.125,-10.125,-10.25,-10.4375,-9.1875,-8.90625,-9.09375,-10.40625,-11.59375,-12.46875,-9.3125,-8.625,-9.625,-9.875,-9.71875,-9.71875,-9.25,-8.40625,-9.46875,-8.875,-8.28125,-10.40625,-11.125,-8.34375,-7.53125,-9.3125,-10.25,-12.46875,-13.375,-13.21875,-12.0,-10.625,-10.375,-9.25,-7.75,-6.5625,-4.96875,-3.875,-3.53125,-2.0625,-0.84375,-0.1875,0.875,-0.09375,0.8125,0.8125,2.34375,3.09375,4.34375,3.125,2.0625,3.3125,3.59375,3.90625,3.21875,2.34375,3.6875,5.96875,8.3125,6.8125,5.375,5.5625,25.8125,30.6875,31.09375,28.3125,25.5625,25.75,25.625,24.5625,24.9375,27.6875,26.28125,21.5625,24.96875,28.625,33.1875,29.65625,35.34375,31.625,24.28125,25.5625,29.75,30.96875,30.59375,27.9375,27.34375,27.15625,27.15625,25.90625,27.21875,28.65625,32.09375,31.125,29.625,28.03125,27.9375,27.59375,28.46875,28.75,28.21875,27.53125,23.40625,21.875,27.53125,32.8125,29.8125,27.28125,32.5,33.8125,0.0
-1.03125,0.0,-0.90625,-2.90625,-3.59375,-3.5625,-3.3125,-5.15625,-5.5,-6.0625,-6.625,-6.0,-6.25,-7.15625,-7.53125,-8.5625,-8.09375,-8.625,-9.5625,-10.15625,-10.75,-10.375,-10.125,-9.34375,-9.46875,-10.3125,-10.46875,-10.4375,-10.71875,-10.84375,-10.125,-10.375,-10.1875,-10.125,-10.125,-10.25,-10.4375,-9.1875,-8.90625,-9.09375,-10.40625,-11.59375,-12.46875,-9.3125,-8.625,-9.625,-9.875,-8.96875,-9.71875,-9.25,-8.40625,-9.46875,-8.875,-8.28125,-10.40625,-11.125,-8.34375,-7.53125,-9.3125,-10.25,-12.46875,-13.375,-13.21875,-12.0,-10.625,-10.375,-9.25,-7.75,-6.5625,-4.96875,-3.875,-3.53125,-2.0625,-0.84375,-0.1875,0.875,-0.09375,0.8125,0.8125,2.34375,3.09375,4.34375,3.125,2.0625,3.3125,3.59375,3.90625,3.21875,2.34375,3.6875,5.96875,8.3125,6.8125,5.375,5.5625,7.40625,30.6875,31.09375,28.3125,25.5625,25.75,25.625,24.5625,24.9375,27.6875,26.28125,21.5625,24.96875,28.625,33.1875,29.65625,35.34375,31.625,24.28125,25.5625,29.75,30.96875,30.59375,27.9375,27.34375,27.15625,27.15625,25.90625,27.21875,28.65625,32.09375,31.125,29.625,28.03125,27.9375,27.59375,28.46875,28.75,28.21875,27.53125,23.40625,21.875,27.53125,32.8125,29.8125,27.28125,32.5,33.8125,30.90625,0.0
0.0,-0.90625,-2.90625,-3.59375,-3.5625,-3.3125,-5.15625,-5.5,-6.0625,-6.625,-6.0,-6.25,-7.15625,-7.53125,-8.5625,-8.09375,-8.625,-9.5625,-10.15625,-10.75,-10.375,-10.125,-9.34375,-9.46875,-10.3125,-10.46875,-10.4375,-10.71875,-10.84375,-10.125,-10.375,-10.1875,-10.125,-10.125,-10.25,-10.4375,-9.1875,-8.90625,-9.09375,-10.40625,-11.59375,-12.46875,-9.3125,-8.625,-9.625,-9.875,-8.96875,-8.0625,-9.25,-8.40625,-9.46875,-8.875,-8.28125,-10.40625,-11.125,-8.34375,-7.53125,-9.3125,-10.25,-12.46875,-13.375,-13.21875,-12.0,-10.625,-10.375,-9.25,-7.75,-6.5625,-4.96875,-3.875,-3.53125,-2.0625,-0.84375,-0.1875,0.875,-0.09375,0.8125,0.8125,2.34375,3.09375,4.34375,3.125,2.0625,3.3125,3.59375,3.90625,3.21875,2.34375,3.6875,5.96875,8.3125,6.8125,5.375,5.5625,7.40625,10.125,31.09375,28.3125,25.5625,25.75,25.625,24.5625,24.9375,27.6875,26.28125,21.5625,24.96875,28.625,33.1875,29.65625,35.34375,31.625,24.28125,25.5625,29.75,30.96875,30.59375,27.9375,27.34375,27.15625,27.15625,25.90625,27.21875,28.65625,32.09375,31.125,29.625,28.03125,27.9375,27.59375,28.46875,28.75,28.21875,27.53125,23.40625,21.875,27.53125,32.8125,29.8125,27.28125,32.5,33.8125,30.90625,28.4375,0.0
-0.90625,-2.90625,-3.59375,-3.5625,-3.3125,-5.15625,-5.5,-6.0625,-6.625,-6.0,-6.25,-7.15625,-7.53125,-8.5625,-8.09375,-8.625,-9.5625,-10.15625,-10.75,-10.375,-10.125,-9.34375,-9.46875,-10.3125,-10.46875,-10.4375,-10.71875,-10.84375,-10.125,-10.375,-10.1875,-10.125,-10.125,-10.25,-10.4375,-9.1875,-8.90625,-9.09375,-10.40625,-11.59375,-12.46875,-9.3125,-8.625,-9.625,-9.875,-8.96875,-8.0625,-8.28125,-8.40625,-9.46875,-8.875,-8.28125,-10.40625,-11.125,-8.34375,-7.53125,-9.3125,-10.25,-12.46875,-13.375,-13.21875,-12.0,-10.625,-10.375,-9.25,-7.75,-6.5625,-4.96875,-3.875,-3.53125,-2.0625,-0.84375,-0.1875,0.875,-0.09375,0.8125,0.8125,2.34375,3.09375,4.34375,3.125,2.0625,3.3125,3.59375,3.90625,3.21875,2.34375,3.6875,5.96875,8.3125,6.8125,5.375,5.5625,7.40625,10.125,11.28125,28.3125,25.5625,25.75,25.625,24.5625,24.9375,27.6875,26.28125,21.5625,24.96875,28.625,33.1875,29.65625,35.34375,31.625,24.28125,25.5625,29.75,30.96875,30.59375,27.9375,27.34375,27.15625,27.15625,25.90625,27.21875,28.65625,32.09375,31.125,29.625,28.03125,27.9375,27.59375,28.46875,28.75,28.21875,27.53125,23.40625,21.875,27.53125,32.8125,29.8125,27.28125,32.5,33.8125,30.90625,28.4375,27.625,0.0
-2.90625,-3.59375,-3.5625,-3.3125,-5.15625,-5.5,-6.0625,-6.625,-6.0,-6.25,-7.15625,-7.53125,-8.5625,-8.09375,-8.625,-9.5625,-10.15625,-10.75,-10.375,-10.125,-9.34375,-9.46875,-10.3125,-10.46875,-10.4375,-10.71875,-10.84375,-10.125,-10.375,-10.1875,-10.125,-10.125,-10.25,-10.4375,-9.1875,-8.90625,-9.09375,-10.40625,-11.59375,-12.46875,-9.3125,-8.625,-9.625,-9.875,-8.96875,-8.0625,-8.28125,-8.5,-9.46875,-8.875,-8.28125,-10.40625,-11.125,-8.34375,-7.53125,-9.3125,-10.25,-12.46875,-13.375,-13.21875,-12.0,-10.625,-10.375,-9.25,-7.75,-6.5625,-4.96875,-3.875,-3.53125,-2.0625,-0.84375,-0.1875,0.875,-0.09375,0.8125,0.8125,2.34375,3.09375,4.34375,3.125,2.0625,3.3125,3.59375,3.90625,3.21875,2.34375,3.6875,5.96875,8.3125,6.8125,5.375,5.5625,7.40625,10.125,11.28125,11.34375,25.5625,25.75,25.625,24.5625,24.9375,27.6875,26.28125,21.5625,24.96875,28.625,33.1875,29.65625,35.34375,31.625,24.28125,25.5625,29.75,30.96875,30.59375,27.9375,27.34375,27.15625,27.15625,25.90625,27.21875,28.65625,32.09375,31.125,29.625,28.03125,27.9375,27.59375,28.46875,28.75,28.21875,27.53125,23.40625,21.875,27.53125,32.8125,29.8125,27.28125,32.5,33.8125,30.90625,28.4375,27.625,28.75,0.0
-3.59375,-3.5625,-3.3125,-5.15625,-5.5,-6.0625,-6.625,-6.0,-6.25,-7.15625,-7.53125,-8.5625,-8.09375,-8.625,-9.5625,-10.15625,-10.75,-10.375,-10.125,-9.34375,-9.46875,-10.3125,-10.46875,-10.4375,-10.71875,-10.84375,-10.125,-10.375,-10.1875,-10.125,-10.125,-10.25,-10.4375,-9.1875,-8.90625,-9.09375,-10.40625,-11.59375,-12.46875,-9.3125,-8.625,-9.625,-9.875,-8.96875,-8.0625,-8.28125,-8.5,-8.15625,-8.875,-8.28125,-10.40625,-11.125,-8.34375,-7.53125,-9.3125,-10.25,-12.46875,-13.375,-13.21875,-12.0,-10.625,-10.375,-9.25,-7.75,-6.5625,-4.96875,-3.875,-3.53125,-2.0625,-0.84375,-0.1875,0.875,-0.09375,0.8125,0.8125,2.34375,3.09375,4.34375,3.125,2.0625,3.3125,3.59375,3.90625,3.21875,2.34375,3.6875,5.96875,8.3125,6.8125,5.375,5.5625,7.40625,10.125,11.28125,11.34375,10.125,25.75,25.625,24.5625,24.9375,27.6875,26.28125,21.5625,24.96875,28.625,33.1875,29.65625,35.34375,31.625,24.28125,25.5625,29.75,30.96875,30.59375,27.9375,27.34375,27.15625,27.15625,25.90625,27.21875,28.65625,32.09375,31.125,29.625,28.03125,27.9375,27.59375,28.46875,28.75,28.21875,27.53125,23.40625,21.875,27.53125,32.8125,29.8125,27.28125,32.5,33.8125,30.90625,28.4375,27.625,28.75,30.0,0.0
-3.5625,-3.3125,-5.15625,-5.5,-6.0625,-6.625,-6.0,-6.25,-7.15625,-7.53125,-8.5625,-8.09375,-8.625,-9.5625,-10.15625,-10.75,-10.375,-10.125,-9.34375,-9.46875,-10.3125,-10.46875,-10.4375,-10.71875,-10.84375,-10.125,-10.375,-10.1875,-10.125,-10.125,-10.25,-10.4375,-9.1875,-8.90625,-9.09375,-10.40625,-11.59375,-12.46875,-9.3125,-8.625,-9.625,-9.875,-8.96875,-8.0625,-8.28125,-8.5,-8.15625,-8.25,-8.28125,-10.40625,-11.125,-8.34375,-7.53125,-9.3125,-10.25,-12.46875,-13.375,-13.21875,-12.0,-10.625,-10.375,-9.25,-7.75,-6.5625,-4.96875,-3.875,-3.53125,-2.0625,-0.84375,-0.1875,0.875,-0.09375,0.8125,0.8125,2.34375,3.09375,4.34375,3.125,2.0625,3.3125,3.59375,3.90625,3.21875,2.34375,3.6875,5.96875,8.3125,6.8125,5.375,5.5625,7.40625,10.125,11.28125,11.34375,10.125,8.1875,25.625,24.5625,24.9375,27.6875,26.28125,21.5625,24.96875,28.625,33.1875,29.65625,35.34375,31.625,24.28125,25.5625,29.75,30.96875,30.59375,27.9375,27.34375,27.15625,27.15625,25.90625,27.21875,28.65625,32.09375,31.125,29.625,28.03125,27.9375,27.59375,28.46875,28.75,28.21875,27.53125,23.40625,21.875,27.53125,32.8125,29.8125,27.28125,32.5,33.8125,30.90625,28.4375,27.625,28.75,30.0,30.5,0.0
-3.3125,-5.15625,-5.5,-6.0625,-6.625,-6.0,-6.25,-7.15625,-7.53125,-8.5625,-8.09375,-8.625,-9.5625,-10.15625,-10.75,-10.375,-10.125,-9.34375,-9.46875,-10.3125,-10.46875,-10.4375,-10.71875,-10.84375,-10.125,-10.375,-10.1875,-10.125,-10.125,-10.25,-10.4375,-9.1875,-8.90625,-9.09375,-10.40625,-11.59375,-12.46875,-9.3125,-8.625,-9.625,-9.875,-8.96875,-8.0625,-8.28125,-8.5,-8.15625,-8.25,-7.53125,-10.40625,-11.125,-8.34375,-7.53125,-9.3125,-10.25,-12.46875,-13.375,-13.21875,-12.0,-10.625,-10.375,-9.25,-7.75,-6.5625,-4.96875,-3.875,-3.53125,-2.0625,-0.84375,-0.1875,0.875,-0.09375,0.8125,0.8125,2.34375,3.09375,4.34375,3.125,2.0625,3.3125,3.59375,3.90625,3.21875,2.34375,3.6875,5.96875,8.3125,6.8125,5.375,5.5625,7.40625,10.125,11.28125,11.34375,10.125,8.1875,8.78125,24.5625,24.9375,27.6875,26.28125,21.5625,24.96875,28.625,33.1875,29.65625,35.34375,31.625,24.28125,25.5625,29.75,30.96875,30.59375,27.9375,27.34375,27.15625,27.15625,25.90625,27.21875,28.65625,32.09375,31.125,29.625,28.03125,27.9375,27.59375,28.46875,28.75,28.21875,27.53125,23.40625,21.875,27.53125,32.8125,29.8125,27.28125,32.5,33.8125,30.90625,28.4375,27.625,28.75,30.0,30.5,29.6875,0.0
-5.15625,-5.5,-6.0625,-6.625,-6.0,-6.25,-7.15625,-7.53125,-8.5625,-8.09375,-8.625,-9.5625,-10.15625,-10.75,-10.375,-10.125,-9.34375,-9.46875,-10.3125,-10.46875,-10.4375,-10.71875,-10.84375,-10.125,-10.375,-10.1875,-10.125,-10.125,-10.25,-10.4375,-9.1875,-8.90625,-9.09375,-10.40625,-11.59375,-12.46875,-9.3125,-8.625,-9.625,-9.875,-8.96875,-8.0625,-8.28125,-8.5,-8.15625,-8.25,-7.53125,-6.84375,-11.125,-8.34375,-7.53125,-9.3125,-10.25,-12.46875,-13.375,-13.21875,-12.0,-10.625,-10.375,-9.25,-7.75,-6.5625,-4.96875,-3.875,-3.53125,-2.0625,-0.84375,-0.1875,0.875,-0.09375,0.8125,0.8125,2.34375,3.09375,4.34375,3.125,2.0625,3.3125,3.59375,3.90625,3.21875,2.34375,3.6875,5.96875,8.3125,6.8125,5.375,5.5625,7.40625,10.125,11.28125,11.34375,10.125,8.1875,8.78125,9.8125,24.9375,27.6875,26.28125,21.5625,24.96875,28.625,33.1875,29.65625,35.34375,31.625,24.28125,25.5625,29.75,30.96875,30.59375,27.9375,27.34375,27.15625,27.15625,25.90625,27.21875,28.65625,32.09375,31.125,29.625,28.03125,27.9375,27.59375,28.46875,28.75,28.21875,27.53125,23.40625,21.875,27.53125,32.8125,29.8125,27.28125,32.5,33.8125,30.90625,28.4375,27.625,28.75,30.0,30.5,29.6875,28.125,0.0
-5.5,-6.0625,-6.625,-6.0,-6.25,-7.15625,-7.53125,-8.5625,-8.09375,-8.625,-9.5625,-10.15625,-10.75,-10.375,-10.125,-9.34375,-9.46875,-10.3125,-10.46875,-10.4375,-10.71875,-10.84375,-10.125,-10.375,-10.1875,-10.125,-10.125,-10.25,-10.4375,-9.1875,-8.90625,-9.09375,-10.40625,-11.59375,-12.46875,-9.3125,-8.625,-9.625,-9.875,-8.96875,-8.0625,-8.28125,-8.5,-8.15625,-8.25,-7.53125,-6.84375,-6.9375,-8.34375,-7.53125,-9.3125,-10.25,-12.46875,-13.375,-13.21875,-12.0,-10.625,-10.375,-9.25,-7.75,-6.5625,-4.96875,-3.875,-3.53125,-2.0625,-0.84375,-0.1875,0.875,-0.09375,0.8125,0.8125,2.34375,3.09375,4.34375,3.125,2.0625,3.3125,3.59375,3.90625,3.21875,2.34375,3.6875,5.96875,8.3125,6.8125,5.375,5.5625,7.40625,10.125,11.28125,11.34375,10.125,8.1875,8.78125,9.8125,10.25,27.6875,26.28125,21.5625,24.96875,28.625,33.1875,29.65625,35.34375,31.625,24.28125,25.5625,29.75,30.96875,30.59375,27.9375,27.34375,27.15625,27.15625,25.90625,27.21875,28.65625,32.09375,31.125,29.625,28.03125,27.9375,27.59375,28.46875,28.75,28.21875,27.53125,23.40625,21.875,27.53125,32.8125,29.8125,27.28125,32.5,33.8125,30.90625,28.4375,27.625,28.75,30.0,30.5,29.6875,28.125,27.40625,0.0
-6.0625,-6.625,-6.0,-6.25,-7.15625,-7.53125,-8.5625,-8.09375,-8.625,-9.5625,-10.15625,-10.75,-10.375,-10.125,-9.34375,-9.46875,-10.3125,-10.46875,-10.4375,-10.71875,-10.84375,-10.125,-10.375,-10.1875,-10.125,-10.125,-10.25,-10.4375,-9.1875,-8.90625,-9.09375,-10.40625,-11.59375,-12.46875,-9.3125,-8.625,-9.625,-9.875,-8.96875,-8.0625,-8.28125,-8.5,-8.15625,-8.25,-7.53125,-6.84375,-6.9375,-7.09375,-7.53125,-9.3125,-10.25,-12.46875,-13.375,-13.21875,-12.0,-10.625,-10.375,-9.25,-7.75,-6.5625,-4.96875,-3.875,-3.53125,-2.0625,-0.84375,-0.1875,0.875,-0.09375,0.8125,0.8125,2.34375,3.09375,4.34375,3.125,2.0625,3.3125,3.59375,3.90625,3.21875,2.34375,3.6875,5.96875,8.3125,6.8125,5.375,5.5625,7.40625,10.125,11.28125,11.34375,10.125,8.1875,8.78125,9.8125,10.25,9.40625,26.28125,21.5625,24.96875,28.625,33.1875,29.65625,35.34375,31.625,24.28125,25.5625,29.75,30.96875,30.59375,27.9375,27.34375,27.15625,27.15625,25.90625,27.21875,28.65625,32.09375,31.125,29.625,28.03125,27.9375,27.59375,28.46875,28.75,28.21875,27.53125,23.40625,21.875,27.53125,32.8125,29.8125,27.28125,32.5,33.8125,30.90625,28.4375,27.625,28.75,30.0,30.5,29.6875,28.125,27.40625,26.34375,0.0
-6.625,-6.0,-6.25,-7.15625,-7.53125,-8.5625,-8.09375,-8.625,-9.5625,-10.15625,-10.75,-10.375,-10.125,-9.34375,-9.46875,-10.3125,-10.46875,-10.4375,-10.71875,-10.84375,-10.125,-10.375,-10.1875,-10.125,-10.125,-10.25,-10.4375,-9.1875,-8.90625,-9.09375,-10.40625,-11.59375,-12.46875,-9.3125,-8.625,-9.625,-9.875,-8.96875,-8.0625,-8.28125,-8.5,-8.15625,-8.25,-7.53125,-6.84375,-6.9375,-7.09375,-6.0625,-9.3125,-10.25,-12.46875,-13.375,-13.21875,-12.0,-10.625,-10.375,-9.25,-7.75,-6.5625,-4.96875,-3.875,-3.53125,-2.0625,-0.84375,-0.1875,0.875,-0.09375,0.8125,0.8125,2.34375,3.09375,4.34375,3.125,2.0625,3.3125,3.59375,3.90625,3.21875,2.34375,3.6875,5.96875,8.3125,6.8125,5.375,5.5625,7.40625,10.125,11.28125,11.34375,10.125,8.1875,8.78125,9.8125,10.25,9.40625,8.84375,21.5625,24.96875,28.625,33.1875,29.65625,35.34375,31.625,24.28125,25.5625,29.75,30.96875,30.59375,27.9375,27.34375,27.15625,27.15625,25.90625,27.21875,28.65625,32.09375,31.125,29.625,28.03125,27.9375,27.59375,28.46875,28.75,28.21875,27.53125,23.40625,21.875,27.53125,32.8125,29.8125,27.28125,32.5,33.8125,30.90625,28.4375,27.625,28.75,30.0,30.5,29.6875,28.125,27.40625,26.34375,27.78125,0.0
-6.0,-6.25,-7.15625,-7.53125,-8.5625,-8.09375,-8.625,-9.5625,-10.15625,-10.75,-10.375,-10.125,-9.34375,-9.46875,-10.3125,-10.46875,-10.4375,-10.71875,-10.84375,-10.125,-10.375,-10.1875,-10.125,-10.125,-10.25,-10.4375,-9.1875,-8.90625,-9.09375,-10.40625,-11.59375,-12.46875,-9.3125,-8.625,-9.625,-9.875,-8.96875,-8.0625,-8.28125,-8.5,-8.15625,-8.25,-7.53125,-6.84375,-6.9375,-7.09375,-6.0625,-6.03125,-10.25,-12.46875,-13.375,-13.21875,-12.0,-10.625,-10.375,-9.25,-7.75,-6.5625,-4.96875,-3.875,-3.53125,-2.0625,-0.84375,-0.1875,0.875,-0.09375,0.8125,0.8125,2.34375,3.09375,4.34375,3.125,2.0625,3.3125,3.59375,3.90625,3.21875,2.34375,3.6875,5.96875,8.3125,6.8125,5.375,5.5625,7.40625,10.125,11.28125,11.34375,10.125,8.1875,8.78125,9.8125,10.25,9.40625,8.84375,7.25,24.96875,28.625,33.1875,29.65625,35.34375,31.625,24.28125,25.5625,29.75,30.96875,30.59375,27.9375,27.34375,27.15625,27.15625,25.90625,27.21875,28.65625,32.09375,31.125,29.625,28.03125,27.9375,27.59375,28.46875,28.75,28.21875,27.53125,23.40625,21.875,27.53125,32.8125,29.8125,27.28125,32.5,33.8125,30.90625,28.4375,27.625,28.75,30.0,30.5,29.6875,28.125,27.40625,26.34375,27.78125,28.125,0.0
-6.25,-7.15625,-7.53125,-8.5625,-8.09375,-8.625,-9.5625,-10.15625,-10.75,-10.375,-10.125,-9.34375,-9.46875,-10.3125,-10.46875,-10.4375,-10.71875,-10.84375,-10.125,-10.375,-10.1875,-10.125,-10.125,-10.25,-10.4375,-9.1875,-8.90625,-9.09375,-10.40625,-11.59375,-12.46875,-9.3125,-8.625,-9.625,-9.875,-8.96875,-8.0625,-8.28125,-8.5,-8.15625,-8.25,-7.53125,-6.84375,-6.9375,-7.09375,-6.0625,-6.03125,-4.84375,-12.46875,-13.375,-13.21875,-12.0,-10.625,-10.375,-9.25,-7.75,-6.5625,-4.96875,-3.875,-3.53125,-2.0625,-0.84375,-0.1875,0.875,-0.09375,0.8125,0.8125,2.34375,3.09375,4.34375,3.125,2.0625,3.3125,3.59375,3.90625,3.21875,2.34375,3.6875,5.96875,8.3125,6.8125,5.375,5.5625,7.40625,10.125,11.28125,11.34375,10.125,8.1875,8.78125,9.8125,10.25,9.40625,8.84375,7.25,7.28125,28.625,33.1875,29.65625,35.34375,31.625,24.28125,25.5625,29.75,30.96875,30.59375,27.9375,27.34375,27.15625,27.15625,25.90625,27.21875,28.65625,32.09375,31.125,29.625,28.03125,27.9375,27.59375,28.46875,28.75,28.21875,27.53125,23.40625,21.875,27.53125,32.8125,29.8125,27.28125,32.5,33.8125,30.90625,28.4375,27.625,28.75,30.0,30.5,29.6875,28.125,27.40625,26.34375,27.78125,28.125,30.78125,0.0
-7.15625,-7.53125,-8.5625,-8.09375,-8.625,-9.5625,-10.15625,-10.75,-10.375,-10.125,-9.34375,-9.46875,-10.3125,-10.46875,-10.4375,-10.71875,-10.84375,-10.125,-10.375,-10.1875,-10.125,-10.125,-10.25,-10.4375,-9.1875,-8.90625,-9.09375,-10.40625,-11.59375,-12.46875,-9.3125,-8.625,-9.625,-9.875,-8.96875,-8.0625,-8.28125,-8.5,-8.15625,-8.25,-7.53125,-6.84375,-6.9375,-7.09375,-6.0625,-6.03125,-4.84375,-7.34375,-13.375,-13.21875,-12.0,-10.625,-10.375,-9.25,-7.75,-6.5625,-4.96875,-3.875,-3.53125,-2.0625,-0.84375,-0.1875,0.875,-0.09375,0.8125,0.8125,2.34375,3.09375,4.34375,3.125,2.0625,3.3125,3.59375,3.90625,3.21875,2.34375,3.6875,5.96875,8.3125,6.8125,5.375,5.5625,7.40625,10.125,11.28125,11.34375,10.125,8.1875,8.78125,9.8125,10.25,9.40625,8.84375,7.25,7.28125,8.875,33.1875,29.65625,35.34375,31.625,24.28125,25.5625,29.75,30.96875,30.59375,27.9375,27.34375,27.15625,27.15625,25.90625,27.21875,28.65625,32.09375,31.125,29.625,28.03125,27.9375,27.59375,28.46875,28.75,28.21875,27.53125,23.40625,21.875,27.53125,32.8125,29.8125,27.28125,32.5,33.8125,30.90625,28.4375,27.625,28.75,30.0,30.5,29.6875,28.125,27.40625,26.34375,27.78125,28.125,30.78125,31.875,0.0
-7.53125,-8.5625,-8.09375,-8.625,-9.5625,-10.15625,-10.75,-10.375,-10.125,-9.34375,-9.46875,-10.3125,-10.46875,-10.4375,-10.71875,-10.84375,-10.125,-10.375,-10.1875,-10.125,-10.125,-10.25,-10.4375,-9.1875,-8.90625,-9.09375,-10.40625,-11.59375,-12.46875,-9.3125,-8.625,-9.625,-9.875,-8.96875,-8.0625,-8.28125,-8.5,-8.15625,-8.25,-7.53125,-6.84375,-6.9375,-7.09375,-6.0625,-6.03125,-4.84375,-7.34375,-3.15625,-13.21875,-12.0,-10.625,-10.375,-9.25,-7.75,-6.5625,-4.96875,-3.875,-3.53125,-2.0625,-0.84375,-0.1875,0.875,-0.09375,0.8125,0.8125,2.34375,3.09375,4.34375,3.125,2.0625,3.3125,3.59375,3.90625,3.21875,2.34375,3.6875,5.96875,8.3125,6.8125,5.375,5.5625,7.40625,10.125,11.28125,11.34375,10.125,8.1875,8.78125,9.8125,10.25,9.40625,8.84375,7.25,7.28125,8.875,11.78125,29.65625,35.34375,31.625,24.28125,25.5625,29.75,30.96875,30.59375,27.9375,27.34375,27.15625,27.15625,25.90625,27.21875,28.65625,32.09375,31.125,29.625,28.03125,27.9375,27.59375,28.46875,28.75,28.21875,27.53125,23.40625,21.875,27.53125,32.8125,29.8125,27.28125,32.5,33.8125,30.90625,28.4375,27.625,28.75,30.0,30.5,29.6875,28.125,27.40625,26.34375,27.78125,28.125,30.78125,31.875,26.53125,0.0
-8.5625,-8.09375,-8.625,-9.5625,-10.15625,-10.75,-10.375,-10.125,-9.34375,-9.46875,-10.3125,-10.46875,-10.4375,-10.71875,-10.84375,-10.125,-10.375,-10.1875,-10.125,-10.125,-10.25,-10.4375,-9.1875,-8.90625,-9.09375,-10.40625,-11.59375,-12.46875,-9.3125,-8.625,-9.625,-9.875,-8.96875,-8.0625,-8.28125,-8.5,-8.15625,-8.25,-7.53125,-6.84375,-6.9375,-7.09375,-6.0625,-6.03125,-4.84375,-7.34375,-3.15625,-7.15625,-12.0,-10.625,-10.375,-9.25,-7.75,-6.5625,-4.96875,-3.875,-3.53125,-2.0625,-0.84375,-0.1875,0.875,-0.09375,0.8125,0.8125,2.34375,3.09375,4.34375,3.125,2.0625,3.3125,3.59375,3.90625,3.21875,2.34375,3.6875,5.96875,8.3125,6.8125,5.375,5.5625,7.40625,10.125,11.28125,11.34375,10.125,8.1875,8.78125,9.8125,10.25,9.40625,8.84375,7.25,7.28125,8.875,11.78125,0.96875,35.34375,31.625,24.28125,25.5625,29.75,30.96875,30.59375,27.9375,27.34375,27.15625,27.15625,25.90625,27.21875,28.65625,32.09375,31.125,29.625,28.03125,27.9375,27.59375,28.46875,28.75,28.21875,27.53125,23.40625,21.875,27.53125,32.8125,29.8125,27.28125,32.5,33.8125,30.90625,28.4375,27.625,28.75,30.0,30.5,29.6875,28.125,27.40625,26.34375,27.78125,28.125,30.78125,31.875,26.53125,36.09375,0.0
-8.09375,-8.625,-9.5625,-10.15625,-10.75,-10.375,-10.125,-9.34375,-9.46875,-10.3125,-10.46875,-10.4375,-10.71875,-10.84375,-10.125,-10.375,-10.1875,-10.125,-10.125,-10.25,-10.4375,-9.1875,-8.90625,-9.09375,-10.40625,-11.59375,-12.46875,-9.3125,-8.625,-9.625,-9.875,-8.96875,-8.0625,-8.28125,-8.5,-8.15625,-8.25,-7.53125,-6.84375,-6.9375,-7.09375,-6.0625,-6.03125,-4.84375,-7.34375,-3.15625,-7.15625,-2.5,-10.625,-10.375,-9.25,-7.75,-6.5625,-4.96875,-3.875,-3.53125,-2.0625,-0.84375,-0.1875,0.875,-0.09375,0.8125,0.8125,2.34375,3.09375,4.34375,3.125,2.0625,3.3125,3.59375,3.90625,3.21875,2.34375,3.6875,5.96875,8.3125,6.8125,5.375,5.5625,7.40625,10.125,11.28125,11.34375,10.125,8.1875,8.78125,9.8125,10.25,9.40625,8.84375,7.25,7.28125,8.875,11.78125,0.96875,2.84375,31.625,24.28125,25.5625,29.75,30.96875,30.59375,27.9375,27.34375,27.15625,27.15625,25.90625,27.21875,28.65625,32.09375,31.125,29.625,28.03125,27.9375,27.59375,28.46875,28.75,28.21875,27.53125,23.40625,21.875,27.53125,32.8125,29.8125,27.28125,32.5,33.8125,30.90625,28.4375,27.625,28.75,30.0,30.5,29.6875,28.125,27.40625,26.34375,27.78125,28.125,30.78125,31.875,26.53125,36.09375,32.625,0.0
-8.625,-9.5625,-10.15625,-10.75,-10.375,-10.125,-9.34375,-9.46875,-10.3125,-10.46875,-10.4375,-10.71875,-10.84375,-10.125,-10.375,-10.1875,-10.125,-10.125,-10.25,-10.4375,-9.1875,-8.90625,-9.09375,-10.40625,-11.59375,-12.46875,-9.3125,-8.625,-9.625,-9.875,-8.96875,-8.0625,-8.28125,-8.5,-8.15625,-8.25,-7.53125,-6.84375,-6.9375,-7.09375,-6.0625,-6.03125,-4.84375,-7.34375,-3.15625,-7.15625,-2.5,-2.25,-10.375,-9.25,-7.75,-6.5625,-4.96875,-3.875,-3.53125,-2.0625,-0.84375,-0.1875,0.875,-0.09375,0.8125,0.8125,2.34375,3.09375,4.34375,3.125,2.0625,3.3125,3.59375,3.90625,3.21875,2.34375,3.6875,5.96875,8.3125,6.8125,5.375,5.5625,7.40625,10.125,11.28125,11.34375,10.125,8.1875,8.78125,9.8125,10.25,9.40625,8.84375,7.25,7.28125,8.875,11.78125,0.96875,2.84375,3.8125,24.28125,25.5625,29.75,30.96875,30.59375,27.9375,27.34375,27.15625,27.15625,25.90625,27.21875,28.65625,32.09375,31.125,29.625,28.03125,27.9375,27.59375,28.46875,28.75,28.21875,27.53125,23.40625,21.875,27.53125,32.8125,29.8125,27.28125,32.5,33.8125,30.90625,28.4375,27.625,28.75,30.0,30.5,29.6875,28.125,27.40625,26.34375,27.78125,28.125,30.78125,31.875,26.53125,36.09375,32.625,34.84375,0.0
-9.5625,-10.15625,-10.75,-10.375,-10.125,-9.34375,-9.46875,-10.3125,-10.46875,-10.4375,-10.71875,-10.84375,-10.125,-10.375,-10.1875,-10.125,-10.125,-10.25,-10.4375,-9.1875,-8.90625,-9.09375,-10.40625,-11.59375,-12.46875,-9.3125,-8.625,-9.625,-9.875,-8.96875,-8.0625,-8.28125,-8.5,-8.15625,-8.25,-7.53125,-6.84375,-6.9375,-7.09375,-6.0625,-6.03125,-4.84375,-7.34375,-3.15625,-7.15625,-2.5,-2.25,-6.8125,-9.25,-7.75,-6.5625,-4.96875,-3.875,-3.53125,-2.0625,-0.84375,-0.1875,0.875,-0.09375,0.8125,0.8125,2.34375,3.09375,4.34375,3.125,2.0625,3.3125,3.59375,3.90625,3.21875,2.34375,3.6875,5.96875,8.3125,6.8125,5.375,5.5625,7.40625,10.125,11.28125,11.34375,10.125,8.1875,8.78125,9.8125,10.25,9.40625,8.84375,7.25,7.28125,8.875,11.78125,0.96875,2.84375,3.8125,-1.65625,25.5625,29.75,30.96875,30.59375,27.9375,27.34375,27.15625,27.15625,25.90625,27.21875,28.65625,32.09375,31.125,29.625,28.03125,27.9375,27.59375,28.46875,28.75,28.21875,27.53125,23.40625,21.875,27.53125,32.8125,29.8125,27.28125,32.5,33.8125,30.90625,28.4375,27.625,28.75,30.0,30.5,29.6875,28.125,27.40625,26.34375,27.78125,28.125,30.78125,31.875,26.53125,36.09375,32.625,34.84375,34.25,0.0
-10.15625,-10.75,-10.375,-10.125,-9.34375,-9.46875,-10.3125,-10.46875,-10.4375,-10.71875,-10.84375,-10.125,-10.375,-10.1875,-10.125,-10.125,-10.25,-10.4375,-9.1875,-8.90625,-9.09375,-10.40625,-11.59375,-12.46875,-9.3125,-8.625,-9.625,-9.875,-8.96875,-8.0625,-8.28125,-8.5,-8.15625,-8.25,-7.53125,-6.84375,-6.9375,-7.09375,-6.0625,-6.03125,-4.84375,-7.34375,-3.15625,-7.15625,-2.5,-2.25,-6.8125,-6.40625,-7.75,-6.5625,-4.96875,-3.875,-3.53125,-2.0625,-0.84375,-0.1875,0.875,-0.09375,0.8125,0.8125,2.34375,3.09375,4.34375,3.125,2.0625,3.3125,3.59375,3.90625,3.21875,2.34375,3.6875,5.96875,8.3125,6.8125,5.375,5.5625,7.40625,10.125,11.28125,11.34375,10.125,8.1875,8.78125,9.8125,10.25,9.40625,8.84375,7.25,7.28125,8.875,11.78125,0.96875,2.84375,3.8125,-1.65625,-4.59375,29.75,30.96875,30.59375,27.9375,27.34375,27.15625,27.15625,25.90625,27.21875,28.65625,32.09375,31.125,29.625,28.03125,27.9375,27.59375,28.46875,28.75,28.21875,27.53125,23.40625,21.875,27.53125,32.8125,29.8125,27.28125,32.5,33.8125,30.90625,28.4375,27.625,28.75,30.0,30.5,29.6875,28.125,27.40625,26.34375,27.78125,28.125,30.78125,31.875,26.53125,36.09375,32.625,34.84375,34.25,31.03125,0.0
-10.75,-10.375,-10.125,-9.34375,-9.46875,-10.3125,-10.46875,-10.4375,-10.71875,-10.84375,-10.125,-10.375,-10.1875,-10.125,-10.125,-10.25,-10.4375,-9.1875,-8.90625,-9.09375,-10.40625,-11.59375,-12.46875,-9.3125,-8.625,-9.625,-9.875,-8.96875,-8.0625,-8.28125,-8.5,-8.15625,-8.25,-7.53125,-6.84375,-6.9375,-7.09375,-6.0625,-6.03125,-4.84375,-7.34375,-3.15625,-7.15625,-2.5,-2.25,-6.8125,-6.40625,-7.1875,-6.5625,-4.96875,-3.875,-3.53125,-2.0625,-0.84375,-0.1875,0.875,-0.09375,0.8125,0.8125,2.34375,3.09375,4.34375,3.125,2.0625,3.3125,3.59375,3.90625,3.21875,2.34375,3.6875,5.96875,8.3125,6.8125,5.375,5.5625,7.40625,10.125,11.28125,11.34375,10.125,8.1875,8.78125,9.8125,10.25,9.40625,8.84375,7.25,7.28125,8.875,11.78125,0.96875,2.84375,3.8125,-1.65625,-4.59375,-7.59375,30.96875,30.59375,27.9375,27.34375,27.15625,27.15625,25.90625,27.21875,28.65625,32.09375,31.125,29.625,28.03125,27.9375,27.59375,28.46875,28.75,28.21875,27.53125,23.40625,21.875,27.53125,32.8125,29.8125,27.28125,32.5,33.8125,30.90625,28.4375,27.625,28.75,30.0,30.5,29.6875,28.125,27.40625,26.34375,27.78125,28.125,30.78125,31.875,26.53125,36.09375,32.625,34.84375,34.25,31.03125,25.1875,0.0
-10.375,-10.125,-9.34375,-9.46875,-10.3125,-10.46875,-10.4375,-10.71875,-10.84375,-10.125,-10.375,-10.1875,-10.125,-10.125,-10.25,-10.4375,-9.1875,-8.90625,-9.09375,-10.40625,-11.59375,-12.46875,-9.3125,-8.625,-9.625,-9.875,-8.96875,-8.0625,-8.28125,-8.5,-8.15625,-8.25,-7.53125,-6.84375,-6.9375,-7.09375,-6.0625,-6.03125,-4.84375,-7.34375,-3.15625,-7.15625,-2.5,-2.25,-6.8125,-6.40625,-7.1875,-7.125,-4.96875,-3.875,-3.53125,-2.0625,-0.84375,-0.1875,0.875,-0.09375,0.8125,0.8125,2.34375,3.09375,4.34375,3.125,2.0625,3.3125,3.59375,3.90625,3.21875,2.34375,3.6875,5.96875,8.3125,6.8125,5.375,5.5625,7.40625,10.125,11.28125,11.34375,10.125,8.1875,8.78125,9.8125,10.25,9.40625,8.84375,7.25,7.28125,8.875,11.78125,0.96875,2.84375,3.8125,-1.65625,-4.59375,-7.59375,-4.75,30.59375,27.9375,27.34375,27.15625,27.15625,25.90625,27.21875,28.65625,32.09375,31.125,29.625,28.03125,27.9375,27.59375,28.46875,28.75,28.21875,27.53125,23.40625,21.875,27.53125,32.8125,29.8125,27.28125,32.5,33.8125,30.90625,28.4375,27.625,28.75,30.0,30.5,29.6875,28.125,27.40625,26.34375,27.78125,28.125,30.78125,31.875,26.53125,36.09375,32.625,34.84375,34.25,31.03125,25.1875,23.5,0.0
-10.125,-9.34375,-9.46875,-10.3125,-10.46875,-10.4375,-10.71875,-10.84375,-10.125,-10.375,-10.1875,-10.125,-10.125,-10.25,-10.4375,-9.1875,-8.90625,-9.09375,-10.40625,-11.59375,-12.46875,-9.3125,-8.625,-9.625,-9.875,-8.96875,-8.0625,-8.28125,-8.5,-8.15625,-8.25,-7.53125,-6.84375,-6.9375,-7.09375,-6.0625,-6.03125,-4.84375,-7.34375,-3.15625,-7.15625,-2.5,-2.25,-6.8125,-6.40625,-7.1875,-7.125,-6.71875,-3.875,-3.53125,-2.0625,-0.84375,-0.1875,0.875,-0.09375,0.8125,0.8125,2.34375,3.09375,4.34375,3.125,2.0625,3.3125,3.59375,3.90625,3.21875,2.34375,3.6875,5.96875,8.3125,6.8125,5.375,5.5625,7.40625,10.125,11.28125,11.34375,10.125,8.1875,8.78125,9.8125,10.25,9.40625,8.84375,7.25,7.28125,8.875,11.78125,0.96875,2.84375,3.8125,-1.65625,-4.59375,-7.59375,-4.75,-4.34375,27.9375,27.34375,27.15625,27.15625,25.90625,27.21875,28.65625,32.09375,31.125,29.625,28.03125,27.9375,27.59375,28.46875,28.75,28.21875,27.53125,23.40625,21.875,27.53125,32.8125,29.8125,27.28125,32.5,33.8125,30.90625,28.4375,27.625,28.75,30.0,30.5,29.6875,28.125,27.40625,26.34375,27.78125,28.125,30.78125,31.875,26.53125,36.09375,32.625,34.84375,34.25,31.03125,25.1875,23.5,25.40625,0.0
-9.34375,-9.46875,-10.3125,-10.46875,-10.4375,-10.71875,-10.84375,-10.125,-10.375,-10.1875,-10.125,-10.125,-10.25,-10.4375,-9.1875,-8.90625,-9.09375,-10.40625,-11.59375,-12.46875,-9.3125,-8.625,-9.625,-9.875,-8.96875,-8.0625,-8.28125,-8.5,-8.15625,-8.25,-7.53125,-6.84375,-6.9375,-7.09375,-6.0625,-6.03125,-4.84375,-7.34375,-3.15625,-7.15625,-2.5,-2.25,-6.8125,-6.40625,-7.1875,-7.125,-6.71875,-6.78125,-3.53125,-2.0625,-0.84375,-0.1875,0.875,-0.09375,0.8125,0.8125,2.34375,3.09375,4.34375,3.125,2.0625,3.3125,3.59375,3.90625,3.21875,2.34375,3.6875,5.96875,8.3125,6.8125,5.375,5.5625,7.40625,10.125,11.28125,11.34375,10.125,8.1875,8.78125,9.8125,10.25,9.40625,8.84375,7.25,7.28125,8.875,11.78125,0.96875,2.84375,3.8125,-1.65625,-4.59375,-7.59375,-4.75,-4.34375,-7.34375,27.34375,27.15625,27.15625,25.90625,27.21875,28.65625,32.09375,31.125,29.625,28.03125,27.9375,27.59375,28.46875,28.75,28.21875,27.53125,23.40625,21.875,27.53125,32.8125,29.8125,27.28125,32.5,33.8125,30.90625,28.4375,27.625,28.75,30.0,30.5,29.6875,28.125,27.40625,26.34375,27.78125,28.125,30.78125,31.875,26.53125,36.09375,32.625,34.84375,34.25,31.03125,25.1875,23.5,25.40625,28.15625,0.0
-9.46875,-10.3125,-10.46875,-10.4375,-10.71875,-10.84375,-10.125,-10.375,-10.1875,-10.125,-10.125,-10.25,-10.4375,-9.1875,-8.90625,-9.09375,-10.40625,-11.59375,-12.46875,-9.3125,-8.625,-9.625,-9.875,-8.96875,-8.0625,-8.28125,-8.5,-8.15625,-8.25,-7.53125,-6.84375,-6.9375,-7.09375,-6.0625,-6.03125,-4.84375,-7.34375,-3.15625,-7.15625,-2.5,-2.25,-6.8125,-6.40625,-7.1875,-7.125,-6.71875,-6.78125,-8.0625,-2.0625,-0.84375,-0.1875,0.875,-0.09375,0.8125,0.8125,2.34375,3.09375,4.34375,3.125,2.0625,3.3125,3.59375,3.90625,3.21875,2.34375,3.6875,5.96875,8.3125,6.8125,5.375,5.5625,7.40625,10.125,11.28125,11.34375,10.125,8.1875,8.78125,9.8125,10.25,9.40625,8.84375,7.25,7.28125,8.875,11.78125,0.96875,2.84375,3.8125,-1.65625,-4.59375,-7.59375,-4.75,-4.34375,-7.34375,-9.21875,27.15625,27.15625,25.90625,27.21875,28.65625,32.09375,31.125,29.625,28.03125,27.9375,27.59375,28.46875,28.75,28.21875,27.53125,23.40625,21.875,27.53125,32.8125,29.8125,27.28125,32.5,33.8125,30.90625,28.4375,27.625,28.75,30.0,30.5,29.6875,28.125,27.40625,26.34375,27.78125,28.125,30.78125,31.875,26.53125,36.09375,32.625,34.84375,34.25,31.03125,25.1875,23.5,25.40625,28.15625,32.03125,0.0
-10.3125,-10.46875,-10.4375,-10.71875,-10.84375,-10.125,-10.375,-10.1875,-10.125,-10.125,-10.25,-10.4375,-9.1875,-8.90625,-9.09375,-10.40625,-11.59375,-12.46875,-9.3125,-8.625,-9.625,-9.875,-8.96875,-8.0625,-8.28125,-8.5,-8.15625,-8.25,-7.53125,-6.84375,-6.9375,-7.09375,-6.0625,-6.03125,-4.84375,-7.34375,-3.15625,-7.15625,-2.5,-2.25,-6.8125,-6.40625,-7.1875,-7.125,-6.71875,-6.78125,-8.0625,-6.46875,-0.84375,-0.1875,0.875,-0.09375,0.8125,0.8125,2.34375,3.09375,4.34375,3.125,2.0625,3.3125,3.59375,3.90625,3.21875,2.34375,3.6875,5.96875,8.3125,6.8125,5.375,5.5625,7.40625,10.125,11.28125,11.34375,10.125,8.1875,8.78125,9.8125,10.25,9.40625,8.84375,7.25,7.28125,8.875,11.78125,0.96875,2.84375,3.8125,-1.65625,-4.59375,-7.59375,-4.75,-4.34375,-7.34375,-9.21875,-7.09375,27.15625,25.90625,27.21875,28.65625,32.09375,31.125,29.625,28.03125,27.9375,27.59375,28.46875,28.75,28.21875,27.53125,23.40625,21.875,27.53125,32.8125,29.8125,27.28125,32.5,33.8125,30.90625,28.4375,27.625,28.75,30.0,30.5,29.6875,28.125,27.40625,26.34375,27.78125,28.125,30.78125,31.875,26.53125,36.09375,32.625,34.84375,34.25,31.03125,25.1875,23.5,25.40625,28.15625,32.03125,27.1875,0.0
-10.46875,-10.4375,-10.71875,-10.84375,-10.125,-10.375,-10.1875,-10.125,-10.125,-10.25,-10.4375,-9.1875,-8.90625,-9.09375,-10.40625,-11.59375,-12.46875,-9.3125,-8.625,-9.625,-9.875,-8.96875,-8.0625,-8.28125,-8.5,-8.15625,-8.25,-7.53125,-6.84375,-6.9375,-7.09375,-6.0625,-6.03125,-4.84375,-7.34375,-3.15625,-7.15625,-2.5,-2.25,-6.8125,-6.40625,-7.1875,-7.125,-6.71875,-6.78125,-8.0625,-6.46875,-3.84375,-0.1875,0.875,-0.09375,0.8125,0.8125,2.34375,3.09375,4.34375,3.125,2.0625,3.3125,3.59375,3.90625,3.21875,2.34375,3.6875,5.96875,8.3125,6.8125,5.375,5.5625,7.40625,10.125,11.28125,11.34375,10.125,8.1875,8.78125,9.8125,10.25,9.40625,8.84375,7.25,7.28125,8.875,11.78125,0.96875,2.84375,3.8125,-1.65625,-4.59375,-7.59375,-4.75,-4.34375,-7.34375,-9.21875,-7.09375,-5.53125,25.90625,27.21875,28.65625,32.09375,31.125,29.625,28.03125,27.9375,27.59375,28.46875,28.75,28.21875,27.53125,23.40625,21.875,27.53125,32.8125,29.8125,27.28125,32.5,33.8125,30.90625,28.4375,27.625,28.75,30.0,30.5,29.6875,28.125,27.40625,26.34375,27.78125,28.125,30.78125,31.875,26.53125,36.09375,32.625,34.84375,34.25,31.03125,25.1875,23.5,25.40625,28.15625,32.03125,27.1875,32.125,0.0
-10.4375,-10.71875,-10.84375,-10.125,-10.375,-10.1875,-10.125,-10.125,-10.25,-10.4375,-9.1875,-8.90625,-9.09375,-10.40625,-11.59375,-12.46875,-9.3125,-8.625,-9.625,-9.875,-8.96875,-8.0625,-8.28125,-8.5,-8.15625,-8.25,-7.53125,-6.84375,-6.9375,-7.09375,-6.0625,-6.03125,-4.84375,-7.34375,-3.15625,-7.15625,-2.5,-2.25,-6.8125,-6.40625,-7.1875,-7.125,-6.71875,-6.78125,-8.0625,-6.46875,-3.84375,-3.46875,0.875,-0.09375,0.8125,0.8125,2.34375,3.09375,4.34375,3.125,2.0625,3.3125,3.59375,3.90625,3.21875,2.34375,3.6875,5.96875,8.3125,6.8125,5.375,5.5625,7.40625,10.125,11.28125,11.34375,10.125,8.1875,8.78125,9.8125,10.25,9.40625,8.84375,7.25,7.28125,8.875,11.78125,0.96875,2.84375,3.8125,-1.65625,-4.59375,-7.59375,-4.75,-4.34375,-7.34375,-9.21875,-7.09375,-5.53125,-3.5,27.21875,28.65625,32.09375,31.125,29.625,28.03125,27.9375,27.59375,28.46875,28.75,28.21875,27.53125,23.40625,21.875,27.53125,32.8125,29.8125,27.28125,32.5,33.8125,30.90625,28.4375,27.625,28.75,30.0,30.5,29.6875,28.125,27.40625,26.34375,27.78125,28.125,30.78125,31.875,26.53125,36.09375,32.625,34.84375,34.25,31.03125,25.1875,23.5,25.40625,28.15625,32.03125,27.1875,32.125,30.5625,0.0
-10.71875,-10.84375,-10.125,-10.375,-10.1875,-10.125,-10.125,-10.25,-10.4375,-9.1875,-8.90625,-9.09375,-10.40625,-11.59375,-12.46875,-9.3125,-8.625,-9.625,-9.875,-8.96875,-8.0625,-8.28125,-8.5,-8.15625,-8.25,-7.53125,-6.84375,-6.9375,-7.09375,-6.0625,-6.03125,-4.84375,-7.34375,-3.15625,-7.15625,-2.5,-2.25,-6.8125,-6.40625,-7.1875,-7.125,-6.71875,-6.78125,-8.0625,-6.46875,-3.84375,-3.46875,-5.09375,-0.09375,0.8125,0.8125,2.34375,3.09375,4.34375,3.125,2.0625,3.3125,3.59375,3.90625,3.21875,2.34375,3.6875,5.96875,8.3125,6.8125,5.375,5.5625,7.40625,10.125,11.28125,11.34375,10.125,8.1875,8.78125,9.8125,10.25,9.40625,8.84375,7.25,7.28125,8.875,11.78125,0.96875,2.84375,3.8125,-1.65625,-4.59375,-7.59375,-4.75,-4.34375,-7.34375,-9.21875,-7.09375,-5.53125,-3.5,-3.90625,28.65625,32.09375,31.125,29.625,28.03125,27.9375,27.59375,28.46875,28.75,28.21875,27.53125,23.40625,21.875,27.53125,32.8125,29.8125,27.28125,32.5,33.8125,30.90625,28.4375,27.625,28.75,30.0,30.5,29.6875,28.125,27.40625,26.34375,27.78125,28.125,30.78125,31.875,26.53125,36.09375,32.625,34.84375,34.25,31.03125,25.1875,23.5,25.40625,28.15625,32.03125,27.1875,32.125,30.5625,26.125,0.0
-10.84375,-10.125,-10.375,-10.1875,-10.125,-10.125,-10.25,-10.4375,-9.1875,-8.90625,-9.09375,-10.40625,-11.59375,-12.46875,-9.3125,-8.625,-9.625,-9.875,-8.96875,-8.0625,-8.28125,-8.5,-8.15625,-8.25,-7.53125,-6.84375,-6.9375,-7.09375,-6.0625,-6.03125,-4.84375,-7.34375,-3.15625,-7.15625,-2.5,-2.25,-6.8125,-6.40625,-7.1875,-7.125,-6.71875,-6.78125,-8.0625,-6.46875,-3.84375,-3.46875,-5.09375,-6.90625,0.8125,0.8125,2.34375,3.09375,4.34375,3.125,2.0625,3.3125,3.59375,3.90625,3.21875,2.34375,3.6875,5.96875,8.3125,6.8125,5.375,5.5625,7.40625,10.125,11.28125,11.34375,10.125,8.1875,8.78125,9.8125,10.25,9.40625,8.84375,7.25,7.28125,8.875,11.78125,0.96875,2.84375,3.8125,-1.65625,-4.59375,-7.59375,-4.75,-4.34375,-7.34375,-9.21875,-7.09375,-5.53125,-3.5,-3.90625,-5.9375,32.09375,31.125,29.625,28.03125,27.9375,27.59375,28.46875,28.75,28.21875,27.53125,23.40625,21.875,27.53125,32.8125,29.8125,27.28125,32.5,33.8125,30.90625,28.4375,27.625,28.75,30.0,30.5,29.6875,28.125,27.40625,26.34375,27.78125,28.125,30.78125,31.875,26.53125,36.09375,32.625,34.84375,34.25,31.03125,25.1875,23.5,25.40625,28.15625,32.03125,27.1875,32.125,30.5625,26.125,26.875,0.0
-10.125,-10.375,-10.1875,-10.125,-10.125,-10.25,-10.4375,-9.1875,-8.90625,-9.09375,-10.40625,-11.59375,-12.46875,-9.3125,-8.625,-9.625,-9.875,-8.96875,-8.0625,-8.28125,-8.5,-8.15625,-8.25,-7.53125,-6.84375,-6.9375,-7.09375,-6.0625,-6.03125,-4.84375,-7.34375,-3.15625,-7.15625,-2.5,-2.25,-6.8125,-6.40625,-7.1875,-7.125,-6.71875,-6.78125,-8.0625,-6.46875,-3.84375,-3.46875,-5.09375,-6.90625,-7.84375,0.8125,2.34375,3.09375,4.34375,3.125,2.0625,3.3125,3.59375,3.90625,3.21875,2.34375,3.6875,5.96875,8.3125,6.8125,5.375,5.5625,7.40625,10.125,11.28125,11.34375,10.125,8.1875,8.78125,9.8125,10.25,9.40625,8.84375,7.25,7.28125,8.875,11.78125,0.96875,2.84375,3.8125,-1.65625,-4.59375,-7.59375,-4.75,-4.34375,-7.34375,-9.21875,-7.09375,-5.53125,-3.5,-3.90625,-5.9375,-7.8125,31.125,29.625,28.03125,27.9375,27.59375,28.46875,28.75,28.21875,27.53125,23.40625,21.875,27.53125,32.8125,29.8125,27.28125,32.5,33.8125,30.90625,28.4375,27.625,28.75,30.0,30.5,29.6875,28.125,27.40625,26.34375,27.78125,28.125,30.78125,31.875,26.53125,36.09375,32.625,34.84375,34.25,31.03125,25.1875,23.5,25.40625,28.15625,32.03125,27.1875,32.125,30.5625,26.125,26.875,28.28125,0.0
-10.375,-10.1875,-10.125,-10.125,-10.25,-10.4375,-9.1875,-8.90625,-9.09375,-10.40625,-11.59375,-12.46875,-9.3125,-8.625,-9.625,-9.875,-8.96875,-8.0625,-8.28125,-8.5,-8.15625,-8.25,-7.53125,-6.84375,-6.9375,-7.09375,-6.0625,-6.03125,-4.84375,-7.34375,-3.15625,-7.15625,-2.5,-2.25,-6.8125,-6.40625,-7.1875,-7.125,-6.71875,-6.78125,-8.0625,-6.46875,-3.84375,-3.46875,-5.09375,-6.90625,-7.84375,-5.375,2.34375,3.09375,4.34375,3.125,2.0625,3.3125,3.59375,3.90625,3.21875,2.34375,3.6875,5.96875,8.3125,6.8125,5.375,5.5625,7.40625,10.125,11.28125,11.34375,10.125,8.1875,8.78125,9.8125,10.25,9.40625,8.84375,7.25,7.28125,8.875,11.78125,0.96875,2.84375,3.8125,-1.65625,-4.59375,-7.59375,-4.75,-4.34375,-7.34375,-9.21875,-7.09375,-5.53125,-3.5,-3.90625,-5.9375,-7.8125,-7.09375,29.625,28.03125,27.9375,27.59375,28.46875,28.75,28.21875,27.53125,23.40625,21.875,27.53125,32.8125,29.8125,27.28125,32.5,33.8125,30.90625,28.4375,27.625,28.75,30.0,30.5,29.6875,28.125,27.40625,26.34375,27.78125,28.125,30.78125,31.875,26.53125,36.09375,32.625,34.84375,34.25,31.03125,25.1875,23.5,25.40625,28.15625,32.03125,27.1875,32.125,30.5625,26.125,26.875,28.28125,28.90625,0.0
