acc_x,acc_y,acc_z
0,-12,993
-2,-13,992
-4,-13,993
-4,-13,994
-4,-14,993
-2,-15,992
-2,-13,993
-1,-13,993
0,-12,992
1,-13,992
1,-11,993
0,-9,994
-4,-8,994
-1,-13,992
-2,-14,993
-2,-15,993
61,152,999
444,710,1014
327,561,937
-485,-1211,1359
-526,-896,1780
-41,-53,1551
-7,-253,1166
3,-128,1053
40,160,1060
-63,-117,948
-79,-290,906
-71,-355,1010
-109,-378,877
-109,-319,832
-149,-300,725
-43,-255,699
-207,-263,624
-245,-295,520
-199,-329,883
-225,-194,1023
-172,-194,914
-167,-215,834
-173,-153,801
-198,33,933
-173,7,1037
-178,-50,1014
-172,-13,1019
-173,50,1061
-178,155,1094
-188,153,1080
-180,157,1081
-218,137,1142
-228,212,1163
-246,191,1082
-259,160,1051
-268,92,1085
-288,75,1148
-291,192,1214
-253,232,1145
-271,221,955
-359,19,776
-377,-197,687
-421,-197,798
-427,-387,902
-355,-443,803
-302,-455,821
-286,-517,782
-258,-584,744
-341,-623,612
-345,-602,429
-371,-590,480
-333,-660,455
-283,-682,506
-251,-589,605
-326,-549,762
-367,-568,700
-338,-473,589
-282,-381,601
-245,-333,756
-209,-392,820
-213,-376,837
-192,-336,797
-180,-274,675
-128,-171,700
-151,-156,884
-87,-115,1115
-89,46,1205
-92,80,1075
-119,127,922
-103,166,947
-96,185,997
-84,194,1061
-102,223,1037
-99,242,964
-119,241,944
-100,236,993
-82,242,1002
-102,219,961
-115,244,922
-107,252,912
-144,212,836
-71,224,1021
-60,106,1116
-87,119,1088
-80,164,987
-65,111,1040
-88,9,1117
-105,-37,1066
-160,-98,974
-178,-153,936
-209,-153,874
-200,-202,906
-200,-301,945
-212,-340,991
-235,-363,976
-240,-379,906
-244,-373,869
-262,-416,821
-255,-447,855
-226,-471,914
-244,-479,910
-286,-452,831
-307,-435,745
-266,-438,784
-266,-472,833
-243,-475,875
-231,-491,857
-181,-498,813
-256,-453,828
-262,-449,851
-229,-457,850
-236,-452,848
-223,-453,845
-259,-399,883
-237,-434,915
-316,-359,839
-210,-384,819
-219,-401,807
-219,-447,810
-238,-450,840
-192,-403,845
-128,-342,649
-287,-361,672
-285,-305,1025
-255,-265,1170
-279,-291,1043
-313,-360,887
-173,-365,825
-159,-418,900
-301,-371,1010
-310,-221,1051
-290,-168,1000
-275,-167,884
-250,-166,815
-186,-201,836
-289,-177,829
-345,-128,965
-399,-66,1044
-301,-145,947
-227,-73,878
-274,-31,926
-282,-26,915
-169,94,986
-186,151,966
-214,151,896
-248,151,909
-150,146,1010
-134,101,1008
-123,159,950
-137,164,915
-148,156,999
-138,122,1065
-87,37,1101
-201,141,1218
-119,28,1090
-94,21,1087
-54,-4,1028
-25,31,996
-16,94,1012
4,141,992
10,170,1010
-7,177,1037
-7,131,1077
28,95,1059
73,186,1154
51,-9,1031
29,-117,961
-13,-209,980
37,11,1033
63,130,1174
78,-82,1123
35,-104,947
-42,-138,915
81,-54,900
31,-3,1007
41,-65,974
-22,-269,883
-55,-496,811
-94,-602,746
-121,-693,598
-140,-684,550
-183,-754,555
-245,-763,773
-234,-751,756
-228,-735,813
-195,-776,680
-175,-610,684
-196,-711,622
-242,-814,677
-223,-696,878
-172,-540,757
-146,-530,727
-192,-668,691
-230,-761,731
-189,-599,761
-173,-439,834
-91,-286,991
-55,-300,760
-58,-270,724
18,-4,842
-15,113,1134
-78,-115,1080
-40,-198,961
-89,-203,971
-117,-5,1054
-102,68,983
-132,-58,1028
-103,-106,1052
-157,-50,1058
-180,-13,1104
-204,-16,1137
-324,-121,1162
-131,23,1132
-37,-19,941
-43,0,951
-71,20,1010
-118,61,1125
-50,94,1064
50,186,954
41,208,927
33,230,987
59,194,994
77,291,975
6,342,1031
-26,362,989
47,514,885
-30,366,874
-54,258,913
-81,267,957
-114,224,1088
-115,261,1113
-118,306,1118
-42,312,1018
4,246,581
31,201,676
-45,113,742
-137,58,958
-158,111,1034
-50,29,794
41,125,781
-54,134,884
-21,193,883
-35,201,941
-79,177,1088
-59,154,1193
-10,168,1119
49,188,987
61,162,922
55,129,949
45,97,1020
75,46,1053
98,-25,1029
111,-57,1023
99,-59,1021
93,-46,1028
59,-42,1020
57,-48,1031
71,-72,1061
67,-90,1038
68,-135,926
57,-165,915
57,-185,969
60,-192,1011
67,-200,1006
70,-201,961
78,-198,941
58,-201,939
60,-228,979
51,-238,1005
47,-243,1016
43,-244,996
32,-229,1029
-3,-212,1045
-8,-220,962
-56,-217,945
-44,-268,969
-41,-278,1000
-42,-303,965
-64,-311,960
-82,-303,945
-98,-301,941
-103,-296,942
-109,-294,922
-117,-292,896
-131,-287,879
-142,-301,897
-148,-313,925
-145,-306,919
-134,-296,899
-137,-307,896
-158,-337,933
-164,-332,975
-145,-325,933
-130,-274,885
-105,-251,849
-99,-310,835
-103,-387,904
-135,-372,1014
-123,-359,1046
-100,-327,998
-88,-283,929
-72,-295,855
-66,-306,885
-76,-243,952
-66,-177,911
-47,-113,909
-46,-86,1007
-38,-83,1018
-26,-81,1036
-23,-78,1041
-9,-29,1001
24,22,919
57,62,821
60,79,813
74,68,846
107,53,858
140,29,856
175,-20,834
199,-29,874
233,-38,923
250,-28,1051
271,4,1163
313,27,1184
363,41,1167
418,24,1110
464,-12,1043
497,-37,1007
508,-54,1003
504,-55,1020
499,-54,1032
497,-60,1028
490,-85,1035
483,-89,1015
473,-78,966
452,-84,872
422,-130,886
409,-193,920
397,-202,922
371,-171,905
342,-121,903
335,-111,850
304,-115,844
300,-158,875
300,-218,915
290,-240,968
280,-230,961
278,-212,934
268,-202,914
256,-198,908
244,-208,935
233,-230,962
229,-250,975
233,-273,973
223,-263,971
204,-241,944
181,-209,925
153,-198,913
153,-201,924
151,-247,879
133,-285,911
121,-308,970
128,-345,951
123,-355,932
114,-352,920
104,-374,908
107,-412,924
102,-419,909
82,-433,901
56,-459,968
50,-486,951
47,-469,893
47,-451,849
30,-450,818
13,-461,833
0,-485,834
-16,-509,811
-35,-516,869
-38,-524,870
-41,-530,850
-55,-525,878
-73,-524,888
-82,-531,895
-96,-525,893
-104,-525,847
-119,-517,866
-140,-513,892
-185,-490,875
-225,-488,807
-259,-489,775
-255,-484,723
-254,-476,660
-235,-472,606
-209,-440,625
-160,-399,609
-75,-347,580
33,-282,621
104,-269,721
112,-251,897
79,-253,1097
34,-347,1142
2,-361,1093
-53,-232,1051
-60,-112,976
-62,-5,938
-77,54,1069
-86,52,1151
-61,26,1247
-73,25,1345
-65,15,1298
26,-3,1135
84,3,1020
47,-19,1028
-26,-68,958
-127,-27,997
-54,129,991
-48,192,824
-109,216,840
-184,185,890
-232,166,935
-256,172,975
-270,212,987
-210,238,905
-163,252,869
-123,286,899
-86,309,923
-82,343,938
-97,379,938
-106,391,894
-95,396,884
-76,397,901
-79,397,986
-113,422,1003
-108,461,977
-89,478,926
-70,494,927
-92,466,940
-90,478,920
-80,497,866
-119,488,881
-125,429,819
-106,435,824
-86,420,886
-119,338,1045
-142,316,1200
-130,382,1240
-145,441,1214
-105,446,1113
-49,365,943
-53,246,765
-120,259,878
-177,313,948
-212,286,924
-216,158,893
-223,17,921
-247,-39,1003
-257,75,1038
-282,119,946
-309,43,893
-255,-24,949
-253,-54,1006
-179,-122,942
-152,-220,869
-118,-242,894
-139,-203,999
-174,-148,1053
-247,-107,1016
-274,-88,997
-270,-109,935
-268,-116,923
-267,-143,891
-321,-256,819
-363,-342,830
-409,-371,825
-387,-343,838
-431,-303,719
-482,-376,619
-506,-454,663
-549,-472,743
-531,-430,787
-515,-381,836
-568,-413,718
-614,-464,600
-611,-414,642
-590,-383,703
-568,-415,648
-567,-427,541
-613,-417,601
-656,-379,634
-703,-319,685
-689,-269,584
-625,-232,594
-570,-208,603
-528,-165,684
-590,-148,756
-707,-155,813
-800,-162,860
-729,-115,876
-664,-80,815
-627,-120,615
-608,-170,493
-626,-154,553
-621,-128,571
-615,-100,623
-576,-81,632
-605,-51,690
-622,-12,762
-641,55,888
-640,77,896
-580,66,819
-529,80,803
-545,102,813
-570,99,870
-491,78,885
-477,93,885
-468,127,906
-446,150,935
-409,152,832
-381,142,826
-432,120,811
-510,100,930
-542,82,1008
-553,92,977
-522,125,904
-483,181,856
-441,263,791
-422,288,781
-386,283,844
-316,285,893
-205,273,872
-136,278,880
-123,280,942
-118,287,997
-108,303,1010
-80,318,982
-47,335,955
-50,365,930
-87,376,962
-132,373,1025
-157,361,1035
-147,322,1064
-139,293,1063
-150,289,1065
-163,299,1039
-159,293,1036
-183,245,1057
-146,162,1019
-63,161,927
-45,251,922
-76,312,944
-122,261,1005
-90,173,1050
-21,105,1090
-26,35,1019
-35,35,1027
-87,96,958
-109,118,959
-79,70,961
-61,-13,956
-75,-79,965
-103,-107,970
-128,-129,983
-153,-105,975
-167,-107,990
-142,-149,913
-135,-186,858
-200,-180,914
-199,-188,1026
-137,-291,895
-148,-322,812
-141,-367,840
-106,-411,774
-119,-431,746
-128,-453,786
-132,-464,868
-123,-474,917
-111,-496,888
-105,-498,878
-119,-509,858
-127,-510,855
-134,-489,916
-116,-490,922
-104,-476,904
-101,-459,895
-101,-463,892
-107,-473,882
-117,-495,870
-116,-508,840
-101,-493,822
-91,-456,807
-74,-410,840
-69,-380,897
-76,-354,965
-98,-342,999
-91,-353,912
-99,-351,885
-140,-359,786
-133,-321,846
-101,-247,965
-106,-213,1037
-121,-194,1073
-128,-184,1006
-126,-158,961
-119,-117,929
-113,-66,948
-112,-41,961
-108,1,935
-108,43,931
-114,85,952
-139,117,1044
-144,124,1057
-142,135,990
-156,209,998
-177,255,973
-181,292,966
-176,302,942
-183,332,943
-220,340,997
-239,340,998
-236,347,969
-219,356,955
-219,361,928
-240,357,933
-261,363,993
-264,366,1072
-175,336,1122
-202,263,1077
-256,173,1004
-264,213,971
-271,232,901
-262,211,885
-321,143,897
-356,92,896
-403,105,994
-361,132,1024
-317,148,946
-334,127,829
-383,90,808
-415,47,846
-407,20,862
-405,-1,858
-429,-34,868
-432,-77,881
-415,-119,838
-432,-161,833
-420,-195,866
-395,-228,862
-406,-279,839
-403,-310,824
-380,-344,721
-366,-369,635
-372,-395,734
-367,-419,791
-366,-433,793
-357,-449,793
-358,-455,804
-368,-457,822
-362,-451,826
-351,-432,813
-348,-420,788
-331,-411,773
-352,-398,791
-346,-379,818
-338,-375,844
-324,-363,885
-330,-357,907
-347,-354,936
-366,-351,878
-362,-331,837
-335,-304,827
-309,-345,816
-299,-379,845
-284,-387,866
-294,-378,859
-331,-363,896
-370,-371,914
-417,-421,1013
-422,-406,1054
-418,-308,907
-403,-209,796
-395,-150,861
-439,-165,860
-456,-173,917
-415,-108,1004
-404,-48,1020
-388,-50,942
-365,-98,902
-334,-100,892
-332,-66,851
-353,-95,794
-409,-158,866
-439,-131,935
-444,-165,848
-479,-178,770
-483,-108,876
-496,-47,978
-507,-55,878
-517,-35,786
-507,-3,770
-445,15,869
-403,-7,909
-367,-21,905
-351,-50,900
-322,-71,923
-310,-72,963
-257,-53,935
-255,5,846
-255,71,551
-188,232,760
-173,316,1038
-300,231,1031
-352,184,942
-295,194,888
-258,247,939
-231,286,1006
-190,276,893
-197,282,991
-227,310,1057
-249,397,1043
-281,437,988
-315,503,863
-249,537,847
-238,540,806
-204,509,835
-201,504,743
-113,422,682
-140,421,848
-134,396,1029
-82,407,996
46,383,903
43,357,896
-21,310,1041
-129,304,1247
-91,310,1293
-57,292,1077
10,271,911
56,228,816
33,215,892
-11,189,979
-48,171,1066
-26,166,1082
27,168,863
92,194,537
169,295,397
198,453,739
65,444,913
12,371,1028
-15,283,1079
8,273,1060
57,327,956
84,414,887
44,473,875
-5,490,928
-1,500,962
10,504,947
34,458,771
34,473,792
-2,498,950
-40,474,1149
-21,432,1219
38,382,1082
41,367,929
-4,380,741
-56,376,829
-59,246,820
-113,68,800
-132,0,841
-74,63,1014
-123,111,1138
-42,169,1122
22,219,1040
5,169,927
-3,98,873
-28,61,949
-42,68,1077
-91,29,1233
-117,-36,1236
-141,-86,1103
-240,-141,1035
-334,-148,1003
-365,-120,958
-408,-109,955
-375,-167,845
-472,-262,848
-543,-332,901
-559,-326,952
-469,-289,939
-408,-255,845
-375,-311,758
-368,-398,795
-395,-426,910
-383,-416,968
-334,-313,897
-309,-253,774
-327,-189,650
-340,-166,604
-383,-184,666
-374,-158,768
-367,-155,818
-411,-215,739
-439,-286,574
-416,-225,616
-400,-139,838
-430,-103,915
-480,-114,872
-465,-73,829
-459,-50,979
-487,-42,1096
-489,-55,1045
-448,-42,940
-429,-23,1020
-437,-3,1101
-428,11,1084
-383,38,1005
-357,37,900
-349,22,866
-403,8,871
-553,60,815
-390,-121,799
-274,-133,803
-515,36,1241
-502,142,1225
-442,231,968
-421,208,771
-391,211,704
-438,194,861
-481,145,900
-470,124,871
-422,137,864
-368,155,743
-313,200,748
-304,251,839
-340,285,890
-315,274,833
-279,259,869
-291,299,879
-314,332,927
-297,337,905
-253,304,835
-224,279,848
-266,268,915
-307,267,981
-286,269,941
-254,264,921
-232,263,900
-240,251,873
-228,227,872
-271,239,950
-297,287,962
-228,360,941
-139,406,906
-151,431,899
-182,469,934
-205,488,892
-191,528,829
-176,578,780
-126,583,742
-106,536,774
-175,477,899
-254,452,996
-242,479,956
-215,542,885
-170,536,780
-207,417,800
-280,268,900
-320,218,939
-269,264,855
-210,299,782
-226,286,847
-299,261,990
-284,220,987
-182,209,843
-157,233,787
-189,232,862
-250,222,955
-275,209,1031
-180,193,996
-110,204,1004
-104,215,1071
13,130,1004
-21,167,1074
-26,261,1134
18,134,1025
-35,67,1036
9,86,1058
49,38,836
33,-46,767
80,-146,760
95,-275,796
66,-304,747
99,-231,819
311,-207,632
353,-211,801
99,-151,1091
-102,-91,1472
-53,8,1257
134,50,983
235,-7,864
189,-37,999
174,-79,1129
184,-121,1133
205,-111,1154
244,-71,1174
228,-51,1118
170,-71,1156
103,-60,1262
64,-48,1283
57,27,1317
85,91,1160
68,104,1052
20,43,1080
-96,-49,1189
-118,-124,1185
-121,-131,1077
-61,-75,870
-118,-32,720
-154,-126,597
-257,-257,671
-353,-328,850
-395,-320,952
-387,-331,861
-355,-339,774
-391,-329,788
-474,-335,861
-484,-325,725
-483,-256,589
-481,-226,499
-550,-256,509
-613,-236,544
-651,-161,513
-668,-101,571
-667,-50,563
-681,-25,563
-748,-4,570
-797,51,568
-774,92,548
-771,149,565
-772,216,578
-699,189,442
-658,157,401
-705,118,437
-721,86,490
-750,123,616
-760,182,743
-805,281,866
-722,322,881
-600,351,794
-466,331,685
-378,296,634
-388,217,712
-490,172,829
-541,166,900
-425,185,972
-350,215,1032
-307,262,1034
-365,344,1173
-373,476,1211
-144,507,905
137,460,642
39,442,692
-193,438,868
-198,392,833
-102,331,732
-34,282,651
-18,255,646
-119,258,769
-246,303,947
-198,346,1033
-117,411,1124
-17,445,1090
26,455,1042
40,461,972
19,466,961
-10,451,1023
67,395,991
80,377,1021
67,390,1110
80,360,1164
141,335,1314
243,217,1308
315,88,1185
334,71,828
294,76,564
245,-56,566
206,-222,662
227,-268,932
259,-269,1010
299,-257,970
289,-230,863
238,-212,801
219,-203,815
170,-242,937
138,-296,1060
139,-340,1094
140,-377,1108
123,-399,1140
90,-413,1129
81,-433,1062
78,-459,1005
61,-472,979
72,-476,942
65,-479,915
39,-453,879
-44,-473,815
-142,-468,819
-130,-435,795
-135,-402,767
-211,-366,752
-259,-327,781
-321,-260,832
-440,-203,891
-437,-201,877
-513,-178,882
-521,-170,870
-513,-204,772
-549,-174,720
-591,-171,764
-626,-175,850
-624,-145,820
-595,-128,685
-591,-96,649
-595,-52,712
-609,-46,736
-658,-48,762
-663,-65,726
-646,-94,629
-672,-91,705
-637,-75,617
-592,-62,625
-579,-36,695
-539,0,714
-566,-18,707
-591,3,812
-575,44,916
-560,64,900
-569,97,829
-496,212,816
-404,254,781
-415,244,845
-466,195,944
-475,236,938
-387,324,802
-310,342,715
-286,280,729
-382,287,904
-428,367,992
-364,447,882
-272,463,750
-207,441,700
-207,334,815
-365,333,1072
-353,412,1044
-263,477,890
-171,486,768
-169,442,796
-298,413,995
-323,449,1030
-229,503,887
-173,528,815
-167,514,831
-134,496,835
-198,517,815
-195,544,886
-208,554,896
-193,566,867
-151,549,839
-126,539,818
-138,527,845
-177,531,890
-187,527,896
-171,499,895
-190,489,937
-209,482,993
-145,481,821
-133,506,731
-178,508,834
-229,442,943
-234,383,998
-205,334,979
-176,331,921
-186,314,820
-163,284,818
-173,228,899
-191,189,986
-218,224,1054
-245,267,1017
-167,245,932
-148,154,842
-193,84,834
-208,64,834
-220,19,911
-232,-26,971
-237,-38,986
-225,-60,1018
-230,-129,976
-249,-158,1005
-239,-163,954
-248,-195,905
-247,-152,1045
-238,-210,906
-249,-233,906
-263,-307,870
-272,-303,905
-290,-311,916
-306,-362,865
-310,-370,859
-313,-401,798
-308,-423,788
-309,-424,779
-320,-471,787
-316,-481,811
-305,-473,817
-307,-431,844
-309,-395,868
-313,-401,863
-326,-407,878
-308,-408,874
-300,-362,890
-273,-279,873
-346,-209,878
-360,-244,941
-333,-261,878
-375,-204,902
-407,-134,901
-416,-109,804
-427,-96,729
-414,-43,830
-424,-12,874
-447,20,850
-423,49,860
-424,80,854
-485,110,860
-562,165,827
-579,207,789
-620,222,775
-603,230,807
-607,244,784
-652,281,782
-662,271,731
-628,269,702
-589,267,714
-593,284,705
-591,256,690
-552,251,706
-564,302,759
-560,329,729
-531,335,828
-507,261,902
-463,227,875
-332,258,798
-316,295,811
-309,283,877
-263,276,902
-253,287,897
-212,289,873
-204,223,897
-217,124,1019
-216,57,1128
-156,48,1149
-108,40,1124
-92,57,1212
-101,-4,1125
-85,64,1079
-118,75,872
-92,102,897
-96,92,884
-105,84,857
-60,98,927
-115,38,858
-64,3,930
-49,-88,945
-39,-210,939
-7,-265,933
20,-281,941
17,-297,962
14,-320,1013
22,-334,1048
32,-335,1048
56,-329,1018
61,-335,988
59,-357,986
43,-361,1003
42,-402,974
28,-452,960
8,-486,955
-22,-535,938
-32,-584,903
-22,-593,816
-42,-611,810
-50,-685,825
-62,-679,835
-92,-643,760
-108,-628,653
-158,-621,671
-180,-634,713
-201,-641,738
-210,-642,728
-221,-651,700
-226,-648,672
-239,-639,666
-271,-645,662
-295,-638,641
-318,-627,587
-299,-635,495
-314,-579,612
-344,-567,674
-364,-560,733
-379,-554,759
-380,-544,770
-378,-530,780
-395,-499,801
-418,-474,785
-418,-431,756
-392,-389,751
-395,-347,800
-383,-326,839
-391,-320,860
-406,-289,873
-403,-270,846
-362,-285,815
-367,-273,910
-387,-258,954
-384,-224,924
-362,-216,935
-366,-170,962
-335,-147,904
-314,-122,918
-312,-119,940
-315,-103,970
-311,-37,945
-312,11,876
-303,42,874
-301,56,868
-280,38,860
-275,57,899
-271,62,918
-263,74,955
-228,100,981
-233,125,976
-262,133,1001
-301,158,1071
-320,201,1077
-291,259,997
-236,298,920
-189,343,991
-197,349,1056
-226,409,1050
-197,476,934
-144,485,838
-144,456,819
-179,431,841
-227,399,867
-234,413,844
-217,437,809
-202,438,774
-210,403,814
-254,374,866
-239,356,827
-206,342,771
-179,326,735
-174,323,761
-197,336,827
-152,355,820
-75,348,784
3,291,748
78,198,738
165,159,756
207,184,817
78,252,1035
10,318,1338
49,320,1479
165,249,1424
302,153,1148
399,84,1125
444,25,1055
404,-29,1085
349,-72,1076
339,-52,1095
311,-36,1057
308,-42,991
274,-47,944
232,-69,953
205,-120,964
195,-150,978
180,-173,961
157,-202,928
125,-238,935
80,-256,992
52,-266,1037
70,-315,1004
45,-335,973
20,-331,950
-30,-352,964
-82,-379,988
-99,-414,962
-45,-440,868
-106,-392,889
-139,-369,910
-154,-425,812
-194,-467,771
-254,-497,772
-272,-483,750
-293,-428,810
-292,-405,791
-308,-427,707
-332,-443,694
-371,-433,772
-372,-378,812
-376,-309,831
-406,-256,836
-424,-206,801
-430,-156,752
-428,-126,774
-417,-105,772
-417,-13,826
-408,43,797
-435,61,864
-458,119,897
-454,170,917
-428,198,958
-400,199,847
-435,168,898
-484,182,953
-472,221,1001
-430,234,924
-392,231,828
-348,255,783
-380,275,828
-401,299,877
-375,308,871
-376,327,857
-272,323,870
-294,257,894
-297,238,942
-258,235,1027
-225,172,977
-262,41,984
-193,8,1027
-200,10,921
-210,-11,876
-177,-88,905
-127,-84,1006
-144,-160,1004
-148,-167,1133
-139,-133,1153
-128,-134,1099
-101,-138,1018
-96,-142,971
-105,-185,953
-116,-216,982
-143,-249,1046
-154,-271,1065
-149,-291,1030
-154,-325,960
-188,-381,946
-215,-419,967
-212,-428,945
-226,-437,913
-249,-460,900
-278,-483,846
-325,-508,858
-332,-513,829
-352,-522,770
-369,-523,721
-398,-537,713
-429,-519,724
-461,-565,740
-492,-560,692
-496,-566,564
-537,-558,548
-559,-506,573
-562,-447,501
-584,-433,410
-597,-457,393
-621,-452,388
-605,-336,461
-610,-246,585
-648,-225,634
-660,-209,609
-669,-168,624
-695,-122,712
-710,-91,771
-681,-46,699
-644,5,551
-641,92,673
-690,187,868
-657,225,763
-630,213,700
-623,242,768
-621,255,764
-595,288,785
-579,311,766
-550,363,734
-504,369,720
-459,336,648
-460,327,715
-450,316,781
-385,323,747
-340,329,733
-330,299,867
-293,312,998
-349,310,1106
-312,324,1077
-304,336,1074
-250,335,934
-162,307,925
-129,278,1047
-99,278,1155
-86,255,1196
-119,219,1089
-138,203,920
-140,166,815
-125,113,797
-93,78,936
-81,17,961
-77,-15,979
-86,-9,973
-72,-4,925
-72,-10,921
-74,-66,941
-72,-147,1008
-60,-212,1054
-81,-218,1047
-106,-199,991
-37,-198,956
-46,-217,998
-19,-222,1056
-63,-226,1047
-67,-236,1059
-75,-226,1042
-64,-198,1037
-94,-193,1014
-131,-207,988
-153,-241,962
-187,-262,963
-220,-279,985
-198,-285,940
-214,-285,915
-236,-273,883
-259,-254,892
-294,-266,905
-303,-268,897
-294,-260,882
-295,-239,854
-308,-209,837
-320,-200,789
-334,-150,819
-362,-104,808
-351,-70,821
-349,0,827
-350,39,739
-299,118,837
-240,198,938
-258,125,1044
-281,109,1204
-293,120,1124
-264,127,930
-226,151,883
-277,140,1002
-369,148,1116
-357,148,1052
-262,144,839
-210,168,779
-235,162,825
-287,176,945
-279,175,907
-247,174,806
-230,215,767
-186,225,706
-183,232,791
-207,251,930
-178,264,986
-92,308,943
16,347,877
77,405,867
46,435,982
5,435,1143
19,384,1205
49,315,1309
107,198,1354
113,58,1346
121,22,1323
131,24,1143
146,-23,916
95,-64,895
26,-86,905
14,-52,964
38,-28,932
59,-6,895
55,-48,907
44,-123,896
42,-152,954
32,-185,974
26,-231,970
5,-255,989
-17,-285,1014
-15,-310,1017
-19,-308,1009
-23,-300,983
-34,-317,963
-47,-337,975
-76,-325,997
-108,-322,1031
-98,-355,1017
-132,-359,1022
-121,-352,957
-142,-341,926
-173,-355,883
-236,-362,898
-266,-392,926
-258,-398,917
-249,-391,841
-281,-393,772
-337,-425,806
-344,-443,793
-350,-461,720
-340,-478,644
-376,-506,619
-403,-523,668
-415,-508,716
-423,-491,672
-424,-457,634
-436,-470,631
-453,-500,690
-445,-494,726
-429,-481,683
-427,-485,666
-426,-487,678
-427,-497,723
-458,-481,777
-471,-460,824
-463,-473,807
-452,-488,797
-418,-502,733
-400,-507,667
-410,-461,718
-388,-408,854
-410,-406,825
-416,-379,770
-400,-284,814
-426,-219,875
-433,-197,850
-436,-194,864
-440,-189,907
-418,-191,898
-396,-189,888
-400,-170,936
-409,-155,913
-399,-119,902
-411,-80,895
-407,-42,864
-415,0,842
-422,55,818
-420,101,799
-407,137,815
-358,166,806
-347,127,842
-373,142,945
-384,201,996
-367,233,914
-318,251,889
-307,222,886
-317,228,992
-328,233,1056
-310,240,1051
-284,259,1012
-255,275,964
-256,235,981
-254,204,1063
-286,221,1151
-291,298,1092
-246,354,1008
-235,333,946
-259,312,974
-269,322,1029
-276,346,1047
-253,361,983
-232,368,916
-224,351,865
-220,331,838
-246,336,849
-261,348,884
-261,384,877
-242,409,827
-236,410,777
-237,384,764
-260,349,820
-283,326,892
-278,314,958
-263,298,983
-238,323,1031
-187,270,827
-169,156,772
-190,43,830
-198,-15,991
-191,-61,1045
-121,-91,1032
-87,-132,1021
-79,-99,1047
-89,-81,998
-103,-124,961
-118,-212,941
-81,-264,989
-66,-262,1015
-86,-181,982
-131,-104,944
-157,-129,839
-154,-179,806
-164,-266,953
-176,-336,1035
-146,-349,981
-125,-295,969
-116,-218,987
-123,-184,986
-108,-189,956
-111,-222,915
-119,-285,942
-127,-308,995
-151,-299,985
-185,-302,944
-192,-332,892
-241,-340,872
-284,-359,859
-287,-347,840
-289,-336,820
-298,-385,751
-309,-479,720
-308,-489,757
-291,-460,762
-288,-452,732
-301,-479,778
-285,-467,826
-270,-461,797
-260,-452,775
-273,-422,769
-282,-408,782
-268,-412,811
-260,-395,946
-264,-372,1007
-251,-357,1014
-242,-344,988
-227,-325,948
-231,-331,956
-234,-358,988
-254,-359,1027
-268,-335,1028
-275,-279,987
-293,-255,917
-300,-226,855
-287,-217,848
-293,-252,886
-299,-292,958
-276,-294,1013
-284,-233,1011
-287,-154,943
-235,-83,841
-225,-62,886
-249,-92,960
-287,-146,1033
-279,-183,992
-262,-167,958
-213,-79,1090
-217,-47,963
-233,-41,923
-199,-56,957
-226,-30,1153
-251,27,1216
-255,79,1137
-268,100,960
-263,127,886
-288,148,844
-312,171,826
-304,205,799
-246,178,780
-217,124,770
-243,98,885
-231,108,901
-211,122,853
-172,140,779
-186,157,830
-237,195,920
-250,247,909
-247,301,844
-218,323,746
-241,316,711
-307,290,763
-389,251,960
-380,226,1175
-331,273,1249
-251,327,1142
-158,310,969
-106,204,912
-114,66,1003
-137,-14,1098
-103,-20,1117
-143,37,1199
-127,130,1260
-71,189,1260
-74,75,821
-86,-94,777
-11,-212,764
-32,-249,741
-73,-252,737
-95,-187,859
-105,-212,904
-49,-276,998
76,-280,1047
150,-207,1111
71,-189,1061
-8,-190,1071
-52,-182,1220
-15,-192,1173
18,-182,1091
43,-170,984
37,-201,894
-6,-250,900
-65,-290,993
-76,-325,1009
-88,-329,956
-94,-312,873
-83,-319,759
-91,-318,715
-140,-352,834
-177,-428,913
-198,-489,1008
-183,-514,996
-176,-512,931
-188,-498,879
-209,-483,857
-235,-505,848
-272,-530,867
-292,-541,884
-288,-535,816
-282,-506,721
-281,-455,676
-290,-425,677
-319,-419,723
-338,-427,775
-336,-412,814
-315,-385,770
-299,-332,761
-294,-268,770
-301,-200,793
-304,-208,739
-310,-251,777
-287,-205,958
-288,-129,1072
-282,-96,1031
-280,-45,1002
-270,-5,1037
-261,23,1042
-229,60,1007
-209,75,1001
-202,84,985
-229,116,1027
-258,160,1066
-254,188,1051
-249,182,1014
-245,173,995
-243,164,972
-221,144,947
-224,117,939
-231,97,965
-237,100,977
-237,149,1008
-231,169,1027
-219,171,1004
-217,155,961
-220,151,942
-217,72,957
-201,-12,945
-181,15,947
-200,-15,922
-165,-64,979
-131,-61,982
-148,-77,932
-142,-83,923
-134,-125,905
-124,-170,953
-116,-213,1010
-96,-232,1001
-109,-206,988
-115,-219,983
-145,-269,930
-132,-289,997
-131,-301,976
-121,-279,955
-137,-236,947
-152,-228,965
-146,-262,961
-137,-281,941
-153,-281,921
-142,-296,901
-124,-281,865
-129,-286,837
-166,-284,906
-188,-292,966
-181,-304,984
-236,-294,1058
-167,-384,994
-213,-382,1036
-198,-398,1012
-212,-376,1014
-232,-407,962
-205,-440,871
-214,-433,879
-227,-426,886
-241,-443,836
-270,-443,829
-264,-394,830
-242,-329,795
-201,-282,746
-172,-224,727
-156,-181,716
-166,-142,751
-185,-109,820
-199,-99,873
-202,-94,968
-207,-96,1019
-201,-90,998
-189,-103,953
-167,-161,898
-153,-192,967
-116,-220,1064
-90,-258,1102
-78,-257,1128
-85,-244,1037
-98,-206,980
-116,-143,971
-134,-108,927
-159,-75,998
-220,-75,1009
-241,-69,997
-238,-43,940
-232,21,991
-221,34,981
-222,72,1031
-210,108,1071
-190,134,1039
-150,150,986
-113,189,962
-128,205,979
-136,227,980
-106,242,953
-91,270,964
-91,265,966
-99,242,1024
-65,187,1082
-83,237,1097
-81,205,1082
-31,219,1122
4,173,1059
6,125,984
-8,59,938
-45,-40,920
-86,-158,957
-101,-211,1031
-58,-119,1016
-59,-70,898
-47,-134,861
-48,-233,870
-40,-298,895
-14,-335,967
52,-314,964
34,-267,960
18,-250,942
-50,-259,962
-110,-303,1038
-89,-387,1070
-52,-398,1022
-65,-407,977
-76,-407,964
-85,-390,925
-87,-381,871
-105,-372,840
-121,-379,848
-129,-378,841
-186,-397,783
-231,-424,796
-273,-469,884
-297,-524,951
-299,-504,998
-276,-442,947
-216,-451,790
-169,-465,695
-162,-476,673
-201,-424,740
-268,-392,717
-254,-372,751
-239,-283,993
-264,-245,1046
-267,-182,848
-206,-150,826
-189,-138,894
-142,-98,887
-149,-78,934
-164,-38,1008
-161,36,965
-96,163,956
-166,261,965
-230,259,1079
-294,297,1081
-232,293,1038
-205,239,987
-168,237,962
-145,241,961
-125,248,969
-94,270,986
-78,289,977
-99,331,983
-106,351,968
-128,355,989
-130,335,991
-137,310,971
-146,255,966
-167,224,1016
-155,218,999
-123,223,970
-108,208,955
-129,204,986
-127,225,962
-119,231,927
-121,245,942
-121,265,941
-129,254,956
-151,212,981
-160,184,979
-139,149,936
-96,118,937
-112,91,1046
-129,113,1198
-33,113,1122
19,39,654
-18,-29,419
-122,-141,509
-263,-257,828
-260,-277,1075
-216,-328,1058
-179,-319,1024
-183,-332,1042
-224,-390,1056
-234,-431,1139
-193,-468,1185
-125,-482,1139
-55,-439,1022
-50,-410,907
-48,-378,852
-84,-400,826
-105,-424,849
-124,-430,881
-158,-455,901
-203,-468,866
-238,-479,836
-270,-459,839
-314,-537,829
-323,-539,847
-307,-514,828
-314,-512,770
-309,-527,748
-324,-556,740
-334,-608,778
-312,-599,778
-285,-575,694
-301,-548,657
-340,-538,683
-378,-538,731
-351,-492,775
-270,-454,732
-271,-397,771
-298,-384,823
-322,-399,867
-303,-423,853
-281,-345,811
-319,-288,755
-380,-326,807
-396,-362,902
-392,-323,970
-385,-221,887
-397,-142,762
-395,-98,792
-418,-53,866
-423,-1,915
-406,19,907
-418,34,923
-436,45,829
-432,85,917
-432,122,877
-405,127,858
-392,148,977
-411,157,1032
-432,180,925
-416,214,858
-405,219,869
-399,228,905
-408,244,852
-397,304,849
-398,316,794
-411,356,817
-387,389,767
-376,385,927
-361,342,935
-338,386,876
-321,425,868
-294,452,835
-266,414,764
-348,517,921
-318,424,950
-323,353,1002
-242,341,956
-175,318,838
-207,337,925
-216,385,977
-203,338,1014
-189,324,1017
-174,362,905
-195,383,767
-220,361,797
-238,297,837
-239,237,931
-245,176,988
-239,123,1058
-227,57,1084
-233,34,1021
-235,41,893
-263,16,849
-277,-2,906
-273,-59,975
-287,-122,1036
-276,-115,956
-253,-124,951
-265,-141,985
-273,-153,990
-285,-182,1008
-315,-236,1040
-331,-262,997
-353,-265,920
-378,-269,850
-394,-280,799
-427,-326,761
-449,-379,771
-473,-449,814
-494,-487,847
-497,-497,821
-539,-476,803
-534,-518,823
-425,-584,864
-315,-688,986
-250,-666,1052
-239,-561,1031
-238,-414,873
-219,-393,783
-242,-348,859
-185,-306,798
-171,-264,661
-234,-175,585
-622,-90,584
-305,-387,755
-294,-318,1085
-317,-207,984
-224,-100,751
-260,-45,637
-255,-73,736
-311,-91,992
-323,-102,1006
-267,-64,838
-258,57,787
-232,97,921
-343,107,1072
-402,118,1119
-404,138,1007
-388,165,912
-376,185,861
-376,206,847
-387,224,867
-396,228,896
-411,222,932
-440,218,979
-439,231,965
-414,238,912
-412,233,864
-433,208,860
-445,177,837
-457,130,817
-467,98,814
-490,100,873
-484,123,904
-448,166,846
-420,176,841
-451,158,936
-445,173,968
-395,177,905
-395,200,943
-406,250,973
-408,263,955
-427,241,957
-426,216,938
-416,183,890
-417,171,843
-427,217,791
-450,222,785
-463,194,772
-465,141,772
-462,106,824
-477,105,904
-460,137,889
-433,134,786
-442,115,772
-437,67,868
-429,18,953
-452,-12,1026
-469,-131,786
-467,-137,764
-310,-213,984
-472,134,966
-455,205,1002
-368,345,998
-336,346,758
-364,339,835
-428,311,874
-442,313,892
-446,342,854
-453,366,814
-481,364,809
-489,311,787
-460,248,731
-444,205,731
-472,182,760
-504,189,793
-508,188,824
-485,212,867
-427,244,847
-392,249,849
-373,237,844
-411,241,911
-431,234,999
-389,223,905
-314,201,877
-293,165,951
-301,135,1118
-304,107,1237
-266,54,1188
-277,-6,995
-293,-55,849
-323,-68,770
-374,-173,708
-345,-229,771
-335,-286,860
-314,-342,845
-307,-345,866
-304,-335,833
-279,-325,796
-269,-336,795
-254,-352,830
-246,-371,866
-218,-393,887
-179,-379,876
-161,-330,837
-156,-312,806
-157,-353,869
-120,-388,914
-93,-404,945
-80,-375,905
-49,-378,839
-23,-365,842
35,-396,924
19,-370,1039
37,-353,1027
11,-325,957
26,-289,920
-11,-297,950
0,-310,873
1,-285,888
-22,-214,1084
-9,-176,1066
-32,-149,1080
-6,-104,942
2,-80,877
-15,-6,1035
10,7,1035
12,14,1058
2,21,1102
-18,18,1081
-33,39,1124
-61,55,1132
-71,77,1098
-76,79,1045
-74,61,1001
-88,48,980
-81,46,947
-79,58,905
-81,75,934
-99,94,951
-81,127,894
-76,148,870
-49,141,895
-52,144,963
-37,173,968
-40,220,976
-34,264,978
-15,279,965
-1,281,955
3,283,949
-3,279,954
-12,274,953
-25,287,956
-44,313,990
4,317,967
30,305,968
42,294,979
35,284,1000
24,282,1026
0,299,1058
-8,332,1032
-10,348,1009
-12,308,1022
-16,237,1054
-2,168,1081
24,125,1017
45,112,991
12,70,938
-11,46,859
13,13,899
15,-12,954
3,-26,987
-35,-57,986
-8,-53,966
26,-51,976
-10,-45,953
-19,-36,945
-40,-34,940
-29,-18,1022
-53,-22,1120
-68,17,1106
-112,139,1111
-148,201,1161
-20,75,983
-60,-82,979
-84,-136,988
-40,-231,819
-55,-275,840
-71,-314,808
-66,-321,889
-49,-318,915
-39,-325,892
-39,-341,890
-33,-376,913
-31,-382,925
-29,-380,935
-41,-381,943
-57,-379,955
-86,-377,971
-96,-345,1000
-112,-337,944
-110,-322,909
-105,-302,896
-93,-275,911
-87,-273,922
-75,-269,931
-60,-286,930
-52,-303,931
-48,-325,934
-39,-338,932
-45,-336,941
-46,-338,936
-46,-316,946
-56,-305,940
-52,-297,949
-43,-287,949
-42,-302,941
-39,-315,959
-28,-305,979
-24,-303,962
-26,-309,955
-13,-312,959
0,-318,939
-13,-322,962
-14,-306,979
-15,-292,957
-16,-283,941
-26,-285,943
-31,-300,948
-36,-315,964
-41,-324,982
-29,-321,973
-20,-314,955
-7,-306,941
-11,-308,940
-7,-317,932
-13,-334,936
-13,-345,959
-7,-338,964
-5,-329,952
-14,-314,960
-21,-296,957
-26,-278,940
-21,-281,918
-26,-301,943
