acc_x_0,acc_x_1,acc_x_2,acc_x_3,acc_x_4,acc_x_5,acc_x_6,acc_x_7,acc_x_8,acc_x_9,acc_x_10,acc_x_11,acc_x_12,acc_x_13,acc_x_14,acc_x_15,acc_x_16,acc_x_17,acc_x_18,acc_x_19,acc_x_20,acc_x_21,acc_x_22,acc_x_23,acc_x_24,acc_x_25,acc_x_26,acc_x_27,acc_x_28,acc_x_29,acc_x_30,acc_x_31,acc_x_32,acc_x_33,acc_x_34,acc_x_35,acc_x_36,acc_x_37,acc_x_38,acc_x_39,acc_x_40,acc_x_41,acc_x_42,acc_x_43,acc_x_44,acc_x_45,acc_x_46,acc_x_47,acc_y_0,acc_y_1,acc_y_2,acc_y_3,acc_y_4,acc_y_5,acc_y_6,acc_y_7,acc_y_8,acc_y_9,acc_y_10,acc_y_11,acc_y_12,acc_y_13,acc_y_14,acc_y_15,acc_y_16,acc_y_17,acc_y_18,acc_y_19,acc_y_20,acc_y_21,acc_y_22,acc_y_23,acc_y_24,acc_y_25,acc_y_26,acc_y_27,acc_y_28,acc_y_29,acc_y_30,acc_y_31,acc_y_32,acc_y_33,acc_y_34,acc_y_35,acc_y_36,acc_y_37,acc_y_38,acc_y_39,acc_y_40,acc_y_41,acc_y_42,acc_y_43,acc_y_44,acc_y_45,acc_y_46,acc_y_47,acc_z_0,acc_z_1,acc_z_2,acc_z_3,acc_z_4,acc_z_5,acc_z_6,acc_z_7,acc_z_8,acc_z_9,acc_z_10,acc_z_11,acc_z_12,acc_z_13,acc_z_14,acc_z_15,acc_z_16,acc_z_17,acc_z_18,acc_z_19,acc_z_20,acc_z_21,acc_z_22,acc_z_23,acc_z_24,acc_z_25,acc_z_26,acc_z_27,acc_z_28,acc_z_29,acc_z_30,acc_z_31,acc_z_32,acc_z_33,acc_z_34,acc_z_35,acc_z_36,acc_z_37,acc_z_38,acc_z_39,acc_z_40,acc_z_41,acc_z_42,acc_z_43,acc_z_44,acc_z_45,acc_z_46,acc_z_47,val
-0.0625,-0.09375,-0.15625,-0.15625,-0.15625,-0.125,-0.09375,-0.03125,0.0,0.03125,0.0,0.03125,0.0,-0.09375,-0.125,-0.125,-0.09375,-0.09375,0.125,4.0625,5.28125,-10.4375,-4.375,-2.9375,-3.5,-5.65625,-9.78125,-9.0625,-8.75,-8.09375,-5.09375,-6.65625,-9.8125,-11.25,-10.03125,-11.0625,-10.40625,-9.4375,-9.40625,-9.34375,-9.96875,-8.59375,-6.65625,-5.90625,-6.6875,-5.9375,-6.84375,-5.84375,-0.3125,-0.25,-0.375,-0.375,-0.46875,-0.5,-0.46875,-0.4375,-0.34375,-0.28125,-0.25,-0.25,-0.34375,-0.40625,-0.46875,-0.46875,-0.46875,-0.375,-0.4375,-9.15625,-20.09375,-2.1875,11.9375,8.6875,-1.21875,-3.875,-1.875,1.0,-0.46875,-2.0,-0.21875,-3.375,-7.71875,-8.75,-8.0625,-7.65625,-6.5,-6.4375,-10.8125,-11.71875,-7.5625,-5.59375,-2.28125,-0.25,0.71875,1.1875,-1.9375,-2.4375,30.90625,31.09375,31.0,31.09375,31.0625,31.0625,31.0,31.0,31.09375,31.03125,30.96875,31.09375,31.0625,31.0625,31.0625,31.125,31.03125,30.8125,31.3125,31.09375,33.6875,40.71875,46.53125,44.21875,33.28125,34.375,39.5,39.40625,37.15625,33.3125,23.59375,21.125,24.25,26.09375,23.3125,23.9375,21.96875,18.90625,17.34375,22.25,30.34375,28.96875,27.25,27.40625,29.53125,34.9375,38.59375,36.03125,1.0
-0.09375,-0.15625,-0.15625,-0.15625,-0.125,-0.09375,-0.03125,0.0,0.03125,0.0,0.03125,0.0,-0.09375,-0.125,-0.125,-0.09375,-0.09375,0.125,4.0625,5.28125,-10.4375,-4.375,-2.9375,-3.5,-5.65625,-9.78125,-9.0625,-8.75,-8.09375,-5.09375,-6.65625,-9.8125,-11.25,-10.03125,-11.0625,-10.40625,-9.4375,-9.40625,-9.34375,-9.96875,-8.59375,-6.65625,-5.90625,-6.6875,-5.9375,-6.84375,-5.84375,-4.53125,-0.25,-0.375,-0.375,-0.46875,-0.5,-0.46875,-0.4375,-0.34375,-0.28125,-0.25,-0.25,-0.34375,-0.40625,-0.46875,-0.46875,-0.46875,-0.375,-0.4375,-9.15625,-20.09375,-2.1875,11.9375,8.6875,-1.21875,-3.875,-1.875,1.0,-0.46875,-2.0,-0.21875,-3.375,-7.71875,-8.75,-8.0625,-7.65625,-6.5,-6.4375,-10.8125,-11.71875,-7.5625,-5.59375,-2.28125,-0.25,0.71875,1.1875,-1.9375,-2.4375,2.65625,31.09375,31.0,31.09375,31.0625,31.0625,31.0,31.0,31.09375,31.03125,30.96875,31.09375,31.0625,31.0625,31.0625,31.125,31.03125,30.8125,31.3125,31.09375,33.6875,40.71875,46.53125,44.21875,33.28125,34.375,39.5,39.40625,37.15625,33.3125,23.59375,21.125,24.25,26.09375,23.3125,23.9375,21.96875,18.90625,17.34375,22.25,30.34375,28.96875,27.25,27.40625,29.53125,34.9375,38.59375,36.03125,34.59375,1.0
-0.15625,-0.15625,-0.15625,-0.125,-0.09375,-0.03125,0.0,0.03125,0.0,0.03125,0.0,-0.09375,-0.125,-0.125,-0.09375,-0.09375,0.125,4.0625,5.28125,-10.4375,-4.375,-2.9375,-3.5,-5.65625,-9.78125,-9.0625,-8.75,-8.09375,-5.09375,-6.65625,-9.8125,-11.25,-10.03125,-11.0625,-10.40625,-9.4375,-9.40625,-9.34375,-9.96875,-8.59375,-6.65625,-5.90625,-6.6875,-5.9375,-6.84375,-5.84375,-4.53125,-4.21875,-0.375,-0.375,-0.46875,-0.5,-0.46875,-0.4375,-0.34375,-0.28125,-0.25,-0.25,-0.34375,-0.40625,-0.46875,-0.46875,-0.46875,-0.375,-0.4375,-9.15625,-20.09375,-2.1875,11.9375,8.6875,-1.21875,-3.875,-1.875,1.0,-0.46875,-2.0,-0.21875,-3.375,-7.71875,-8.75,-8.0625,-7.65625,-6.5,-6.4375,-10.8125,-11.71875,-7.5625,-5.59375,-2.28125,-0.25,0.71875,1.1875,-1.9375,-2.4375,2.65625,4.5625,31.0,31.09375,31.0625,31.0625,31.0,31.0,31.09375,31.03125,30.96875,31.09375,31.0625,31.0625,31.0625,31.125,31.03125,30.8125,31.3125,31.09375,33.6875,40.71875,46.53125,44.21875,33.28125,34.375,39.5,39.40625,37.15625,33.3125,23.59375,21.125,24.25,26.09375,23.3125,23.9375,21.96875,18.90625,17.34375,22.25,30.34375,28.96875,27.25,27.40625,29.53125,34.9375,38.59375,36.03125,34.59375,35.625,1.0
-0.15625,-0.15625,-0.125,-0.09375,-0.03125,0.0,0.03125,0.0,0.03125,0.0,-0.09375,-0.125,-0.125,-0.09375,-0.09375,0.125,4.0625,5.28125,-10.4375,-4.375,-2.9375,-3.5,-5.65625,-9.78125,-9.0625,-8.75,-8.09375,-5.09375,-6.65625,-9.8125,-11.25,-10.03125,-11.0625,-10.40625,-9.4375,-9.40625,-9.34375,-9.96875,-8.59375,-6.65625,-5.90625,-6.6875,-5.9375,-6.84375,-5.84375,-4.53125,-4.21875,-3.25,-0.375,-0.46875,-0.5,-0.46875,-0.4375,-0.34375,-0.28125,-0.25,-0.25,-0.34375,-0.40625,-0.46875,-0.46875,-0.46875,-0.375,-0.4375,-9.15625,-20.09375,-2.1875,11.9375,8.6875,-1.21875,-3.875,-1.875,1.0,-0.46875,-2.0,-0.21875,-3.375,-7.71875,-8.75,-8.0625,-7.65625,-6.5,-6.4375,-10.8125,-11.71875,-7.5625,-5.59375,-2.28125,-0.25,0.71875,1.1875,-1.9375,-2.4375,2.65625,4.5625,4.25,31.09375,31.0625,31.0625,31.0,31.0,31.09375,31.03125,30.96875,31.09375,31.0625,31.0625,31.0625,31.125,31.03125,30.8125,31.3125,31.09375,33.6875,40.71875,46.53125,44.21875,33.28125,34.375,39.5,39.40625,37.15625,33.3125,23.59375,21.125,24.25,26.09375,23.3125,23.9375,21.96875,18.90625,17.34375,22.25,30.34375,28.96875,27.25,27.40625,29.53125,34.9375,38.59375,36.03125,34.59375,35.625,35.53125,1.0
-0.15625,-0.125,-0.09375,-0.03125,0.0,0.03125,0.0,0.03125,0.0,-0.09375,-0.125,-0.125,-0.09375,-0.09375,0.125,4.0625,5.28125,-10.4375,-4.375,-2.9375,-3.5,-5.65625,-9.78125,-9.0625,-8.75,-8.09375,-5.09375,-6.65625,-9.8125,-11.25,-10.03125,-11.0625,-10.40625,-9.4375,-9.40625,-9.34375,-9.96875,-8.59375,-6.65625,-5.90625,-6.6875,-5.9375,-6.84375,-5.84375,-4.53125,-4.21875,-3.25,-3.25,-0.46875,-0.5,-0.46875,-0.4375,-0.34375,-0.28125,-0.25,-0.25,-0.34375,-0.40625,-0.46875,-0.46875,-0.46875,-0.375,-0.4375,-9.15625,-20.09375,-2.1875,11.9375,8.6875,-1.21875,-3.875,-1.875,1.0,-0.46875,-2.0,-0.21875,-3.375,-7.71875,-8.75,-8.0625,-7.65625,-6.5,-6.4375,-10.8125,-11.71875,-7.5625,-5.59375,-2.28125,-0.25,0.71875,1.1875,-1.9375,-2.4375,2.65625,4.5625,4.25,6.34375,31.0625,31.0625,31.0,31.0,31.09375,31.03125,30.96875,31.09375,31.0625,31.0625,31.0625,31.125,31.03125,30.8125,31.3125,31.09375,33.6875,40.71875,46.53125,44.21875,33.28125,34.375,39.5,39.40625,37.15625,33.3125,23.59375,21.125,24.25,26.09375,23.3125,23.9375,21.96875,18.90625,17.34375,22.25,30.34375,28.96875,27.25,27.40625,29.53125,34.9375,38.59375,36.03125,34.59375,35.625,35.53125,40.59375,1.0
-0.125,-0.09375,-0.03125,0.0,0.03125,0.0,0.03125,0.0,-0.09375,-0.125,-0.125,-0.09375,-0.09375,0.125,4.0625,5.28125,-10.4375,-4.375,-2.9375,-3.5,-5.65625,-9.78125,-9.0625,-8.75,-8.09375,-5.09375,-6.65625,-9.8125,-11.25,-10.03125,-11.0625,-10.40625,-9.4375,-9.40625,-9.34375,-9.96875,-8.59375,-6.65625,-5.90625,-6.6875,-5.9375,-6.84375,-5.84375,-4.53125,-4.21875,-3.25,-3.25,1.03125,-0.5,-0.46875,-0.4375,-0.34375,-0.28125,-0.25,-0.25,-0.34375,-0.40625,-0.46875,-0.46875,-0.46875,-0.375,-0.4375,-9.15625,-20.09375,-2.1875,11.9375,8.6875,-1.21875,-3.875,-1.875,1.0,-0.46875,-2.0,-0.21875,-3.375,-7.71875,-8.75,-8.0625,-7.65625,-6.5,-6.4375,-10.8125,-11.71875,-7.5625,-5.59375,-2.28125,-0.25,0.71875,1.1875,-1.9375,-2.4375,2.65625,4.5625,4.25,6.34375,5.84375,31.0625,31.0,31.0,31.09375,31.03125,30.96875,31.09375,31.0625,31.0625,31.0625,31.125,31.03125,30.8125,31.3125,31.09375,33.6875,40.71875,46.53125,44.21875,33.28125,34.375,39.5,39.40625,37.15625,33.3125,23.59375,21.125,24.25,26.09375,23.3125,23.9375,21.96875,18.90625,17.34375,22.25,30.34375,28.96875,27.25,27.40625,29.53125,34.9375,38.59375,36.03125,34.59375,35.625,35.53125,40.59375,36.09375,1.0
-0.09375,-0.03125,0.0,0.03125,0.0,0.03125,0.0,-0.09375,-0.125,-0.125,-0.09375,-0.09375,0.125,4.0625,5.28125,-10.4375,-4.375,-2.9375,-3.5,-5.65625,-9.78125,-9.0625,-8.75,-8.09375,-5.09375,-6.65625,-9.8125,-11.25,-10.03125,-11.0625,-10.40625,-9.4375,-9.40625,-9.34375,-9.96875,-8.59375,-6.65625,-5.90625,-6.6875,-5.9375,-6.84375,-5.84375,-4.53125,-4.21875,-3.25,-3.25,1.03125,-1.03125,-0.46875,-0.4375,-0.34375,-0.28125,-0.25,-0.25,-0.34375,-0.40625,-0.46875,-0.46875,-0.46875,-0.375,-0.4375,-9.15625,-20.09375,-2.1875,11.9375,8.6875,-1.21875,-3.875,-1.875,1.0,-0.46875,-2.0,-0.21875,-3.375,-7.71875,-8.75,-8.0625,-7.65625,-6.5,-6.4375,-10.8125,-11.71875,-7.5625,-5.59375,-2.28125,-0.25,0.71875,1.1875,-1.9375,-2.4375,2.65625,4.5625,4.25,6.34375,5.84375,0.46875,31.0,31.0,31.09375,31.03125,30.96875,31.09375,31.0625,31.0625,31.0625,31.125,31.03125,30.8125,31.3125,31.09375,33.6875,40.71875,46.53125,44.21875,33.28125,34.375,39.5,39.40625,37.15625,33.3125,23.59375,21.125,24.25,26.09375,23.3125,23.9375,21.96875,18.90625,17.34375,22.25,30.34375,28.96875,27.25,27.40625,29.53125,34.9375,38.59375,36.03125,34.59375,35.625,35.53125,40.59375,36.09375,25.875,1.0
-0.03125,0.0,0.03125,0.0,0.03125,0.0,-0.09375,-0.125,-0.125,-0.09375,-0.09375,0.125,4.0625,5.28125,-10.4375,-4.375,-2.9375,-3.5,-5.65625,-9.78125,-9.0625,-8.75,-8.09375,-5.09375,-6.65625,-9.8125,-11.25,-10.03125,-11.0625,-10.40625,-9.4375,-9.40625,-9.34375,-9.96875,-8.59375,-6.65625,-5.90625,-6.6875,-5.9375,-6.84375,-5.84375,-4.53125,-4.21875,-3.25,-3.25,1.03125,-1.03125,-6.09375,-0.4375,-0.34375,-0.28125,-0.25,-0.25,-0.34375,-0.40625,-0.46875,-0.46875,-0.46875,-0.375,-0.4375,-9.15625,-20.09375,-2.1875,11.9375,8.6875,-1.21875,-3.875,-1.875,1.0,-0.46875,-2.0,-0.21875,-3.375,-7.71875,-8.75,-8.0625,-7.65625,-6.5,-6.4375,-10.8125,-11.71875,-7.5625,-5.59375,-2.28125,-0.25,0.71875,1.1875,-1.9375,-2.4375,2.65625,4.5625,4.25,6.34375,5.84375,0.46875,-5.4375,31.0,31.09375,31.03125,30.96875,31.09375,31.0625,31.0625,31.0625,31.125,31.03125,30.8125,31.3125,31.09375,33.6875,40.71875,46.53125,44.21875,33.28125,34.375,39.5,39.40625,37.15625,33.3125,23.59375,21.125,24.25,26.09375,23.3125,23.9375,21.96875,18.90625,17.34375,22.25,30.34375,28.96875,27.25,27.40625,29.53125,34.9375,38.59375,36.03125,34.59375,35.625,35.53125,40.59375,36.09375,25.875,18.53125,1.0
0.0,0.03125,0.0,0.03125,0.0,-0.09375,-0.125,-0.125,-0.09375,-0.09375,0.125,4.0625,5.28125,-10.4375,-4.375,-2.9375,-3.5,-5.65625,-9.78125,-9.0625,-8.75,-8.09375,-5.09375,-6.65625,-9.8125,-11.25,-10.03125,-11.0625,-10.40625,-9.4375,-9.40625,-9.34375,-9.96875,-8.59375,-6.65625,-5.90625,-6.6875,-5.9375,-6.84375,-5.84375,-4.53125,-4.21875,-3.25,-3.25,1.03125,-1.03125,-6.09375,-10.84375,-0.34375,-0.28125,-0.25,-0.25,-0.34375,-0.40625,-0.46875,-0.46875,-0.46875,-0.375,-0.4375,-9.15625,-20.09375,-2.1875,11.9375,8.6875,-1.21875,-3.875,-1.875,1.0,-0.46875,-2.0,-0.21875,-3.375,-7.71875,-8.75,-8.0625,-7.65625,-6.5,-6.4375,-10.8125,-11.71875,-7.5625,-5.59375,-2.28125,-0.25,0.71875,1.1875,-1.9375,-2.4375,2.65625,4.5625,4.25,6.34375,5.84375,0.46875,-5.4375,-8.5625,31.09375,31.03125,30.96875,31.09375,31.0625,31.0625,31.0625,31.125,31.03125,30.8125,31.3125,31.09375,33.6875,40.71875,46.53125,44.21875,33.28125,34.375,39.5,39.40625,37.15625,33.3125,23.59375,21.125,24.25,26.09375,23.3125,23.9375,21.96875,18.90625,17.34375,22.25,30.34375,28.96875,27.25,27.40625,29.53125,34.9375,38.59375,36.03125,34.59375,35.625,35.53125,40.59375,36.09375,25.875,18.53125,9.375,1.0
0.03125,0.0,0.03125,0.0,-0.09375,-0.125,-0.125,-0.09375,-0.09375,0.125,4.0625,5.28125,-10.4375,-4.375,-2.9375,-3.5,-5.65625,-9.78125,-9.0625,-8.75,-8.09375,-5.09375,-6.65625,-9.8125,-11.25,-10.03125,-11.0625,-10.40625,-9.4375,-9.40625,-9.34375,-9.96875,-8.59375,-6.65625,-5.90625,-6.6875,-5.9375,-6.84375,-5.84375,-4.53125,-4.21875,-3.25,-3.25,1.03125,-1.03125,-6.09375,-10.84375,-9.3125,-0.28125,-0.25,-0.25,-0.34375,-0.40625,-0.46875,-0.46875,-0.46875,-0.375,-0.4375,-9.15625,-20.09375,-2.1875,11.9375,8.6875,-1.21875,-3.875,-1.875,1.0,-0.46875,-2.0,-0.21875,-3.375,-7.71875,-8.75,-8.0625,-7.65625,-6.5,-6.4375,-10.8125,-11.71875,-7.5625,-5.59375,-2.28125,-0.25,0.71875,1.1875,-1.9375,-2.4375,2.65625,4.5625,4.25,6.34375,5.84375,0.46875,-5.4375,-8.5625,0.40625,31.03125,30.96875,31.09375,31.0625,31.0625,31.0625,31.125,31.03125,30.8125,31.3125,31.09375,33.6875,40.71875,46.53125,44.21875,33.28125,34.375,39.5,39.40625,37.15625,33.3125,23.59375,21.125,24.25,26.09375,23.3125,23.9375,21.96875,18.90625,17.34375,22.25,30.34375,28.96875,27.25,27.40625,29.53125,34.9375,38.59375,36.03125,34.59375,35.625,35.53125,40.59375,36.09375,25.875,18.53125,9.375,9.0625,1.0
0.0,0.03125,0.0,-0.09375,-0.125,-0.125,-0.09375,-0.09375,0.125,4.0625,5.28125,-10.4375,-4.375,-2.9375,-3.5,-5.65625,-9.78125,-9.0625,-8.75,-8.09375,-5.09375,-6.65625,-9.8125,-11.25,-10.03125,-11.0625,-10.40625,-9.4375,-9.40625,-9.34375,-9.96875,-8.59375,-6.65625,-5.90625,-6.6875,-5.9375,-6.84375,-5.84375,-4.53125,-4.21875,-3.25,-3.25,1.03125,-1.03125,-6.09375,-10.84375,-9.3125,-6.34375,-0.25,-0.25,-0.34375,-0.40625,-0.46875,-0.46875,-0.46875,-0.375,-0.4375,-9.15625,-20.09375,-2.1875,11.9375,8.6875,-1.21875,-3.875,-1.875,1.0,-0.46875,-2.0,-0.21875,-3.375,-7.71875,-8.75,-8.0625,-7.65625,-6.5,-6.4375,-10.8125,-11.71875,-7.5625,-5.59375,-2.28125,-0.25,0.71875,1.1875,-1.9375,-2.4375,2.65625,4.5625,4.25,6.34375,5.84375,0.46875,-5.4375,-8.5625,0.40625,5.65625,30.96875,31.09375,31.0625,31.0625,31.0625,31.125,31.03125,30.8125,31.3125,31.09375,33.6875,40.71875,46.53125,44.21875,33.28125,34.375,39.5,39.40625,37.15625,33.3125,23.59375,21.125,24.25,26.09375,23.3125,23.9375,21.96875,18.90625,17.34375,22.25,30.34375,28.96875,27.25,27.40625,29.53125,34.9375,38.59375,36.03125,34.59375,35.625,35.53125,40.59375,36.09375,25.875,18.53125,9.375,9.0625,7.40625,1.0
0.03125,0.0,-0.09375,-0.125,-0.125,-0.09375,-0.09375,0.125,4.0625,5.28125,-10.4375,-4.375,-2.9375,-3.5,-5.65625,-9.78125,-9.0625,-8.75,-8.09375,-5.09375,-6.65625,-9.8125,-11.25,-10.03125,-11.0625,-10.40625,-9.4375,-9.40625,-9.34375,-9.96875,-8.59375,-6.65625,-5.90625,-6.6875,-5.9375,-6.84375,-5.84375,-4.53125,-4.21875,-3.25,-3.25,1.03125,-1.03125,-6.09375,-10.84375,-9.3125,-6.34375,-2.625,-0.25,-0.34375,-0.40625,-0.46875,-0.46875,-0.46875,-0.375,-0.4375,-9.15625,-20.09375,-2.1875,11.9375,8.6875,-1.21875,-3.875,-1.875,1.0,-0.46875,-2.0,-0.21875,-3.375,-7.71875,-8.75,-8.0625,-7.65625,-6.5,-6.4375,-10.8125,-11.71875,-7.5625,-5.59375,-2.28125,-0.25,0.71875,1.1875,-1.9375,-2.4375,2.65625,4.5625,4.25,6.34375,5.84375,0.46875,-5.4375,-8.5625,0.40625,5.65625,3.84375,31.09375,31.0625,31.0625,31.0625,31.125,31.03125,30.8125,31.3125,31.09375,33.6875,40.71875,46.53125,44.21875,33.28125,34.375,39.5,39.40625,37.15625,33.3125,23.59375,21.125,24.25,26.09375,23.3125,23.9375,21.96875,18.90625,17.34375,22.25,30.34375,28.96875,27.25,27.40625,29.53125,34.9375,38.59375,36.03125,34.59375,35.625,35.53125,40.59375,36.09375,25.875,18.53125,9.375,9.0625,7.40625,22.15625,1.0
0.0,-0.09375,-0.125,-0.125,-0.09375,-0.09375,0.125,4.0625,5.28125,-10.4375,-4.375,-2.9375,-3.5,-5.65625,-9.78125,-9.0625,-8.75,-8.09375,-5.09375,-6.65625,-9.8125,-11.25,-10.03125,-11.0625,-10.40625,-9.4375,-9.40625,-9.34375,-9.96875,-8.59375,-6.65625,-5.90625,-6.6875,-5.9375,-6.84375,-5.84375,-4.53125,-4.21875,-3.25,-3.25,1.03125,-1.03125,-6.09375,-10.84375,-9.3125,-6.34375,-2.625,0.6875,-0.34375,-0.40625,-0.46875,-0.46875,-0.46875,-0.375,-0.4375,-9.15625,-20.09375,-2.1875,11.9375,8.6875,-1.21875,-3.875,-1.875,1.0,-0.46875,-2.0,-0.21875,-3.375,-7.71875,-8.75,-8.0625,-7.65625,-6.5,-6.4375,-10.8125,-11.71875,-7.5625,-5.59375,-2.28125,-0.25,0.71875,1.1875,-1.9375,-2.4375,2.65625,4.5625,4.25,6.34375,5.84375,0.46875,-5.4375,-8.5625,0.40625,5.65625,3.84375,2.5,31.0625,31.0625,31.0625,31.125,31.03125,30.8125,31.3125,31.09375,33.6875,40.71875,46.53125,44.21875,33.28125,34.375,39.5,39.40625,37.15625,33.3125,23.59375,21.125,24.25,26.09375,23.3125,23.9375,21.96875,18.90625,17.34375,22.25,30.34375,28.96875,27.25,27.40625,29.53125,34.9375,38.59375,36.03125,34.59375,35.625,35.53125,40.59375,36.09375,25.875,18.53125,9.375,9.0625,7.40625,22.15625,44.28125,1.0
-0.09375,-0.125,-0.125,-0.09375,-0.09375,0.125,4.0625,5.28125,-10.4375,-4.375,-2.9375,-3.5,-5.65625,-9.78125,-9.0625,-8.75,-8.09375,-5.09375,-6.65625,-9.8125,-11.25,-10.03125,-11.0625,-10.40625,-9.4375,-9.40625,-9.34375,-9.96875,-8.59375,-6.65625,-5.90625,-6.6875,-5.9375,-6.84375,-5.84375,-4.53125,-4.21875,-3.25,-3.25,1.03125,-1.03125,-6.09375,-10.84375,-9.3125,-6.34375,-2.625,0.6875,-2.875,-0.40625,-0.46875,-0.46875,-0.46875,-0.375,-0.4375,-9.15625,-20.09375,-2.1875,11.9375,8.6875,-1.21875,-3.875,-1.875,1.0,-0.46875,-2.0,-0.21875,-3.375,-7.71875,-8.75,-8.0625,-7.65625,-6.5,-6.4375,-10.8125,-11.71875,-7.5625,-5.59375,-2.28125,-0.25,0.71875,1.1875,-1.9375,-2.4375,2.65625,4.5625,4.25,6.34375,5.84375,0.46875,-5.4375,-8.5625,0.40625,5.65625,3.84375,2.5,-11.59375,31.0625,31.0625,31.125,31.03125,30.8125,31.3125,31.09375,33.6875,40.71875,46.53125,44.21875,33.28125,34.375,39.5,39.40625,37.15625,33.3125,23.59375,21.125,24.25,26.09375,23.3125,23.9375,21.96875,18.90625,17.34375,22.25,30.34375,28.96875,27.25,27.40625,29.53125,34.9375,38.59375,36.03125,34.59375,35.625,35.53125,40.59375,36.09375,25.875,18.53125,9.375,9.0625,7.40625,22.15625,44.28125,49.375,1.0
-0.125,-0.125,-0.09375,-0.09375,0.125,4.0625,5.28125,-10.4375,-4.375,-2.9375,-3.5,-5.65625,-9.78125,-9.0625,-8.75,-8.09375,-5.09375,-6.65625,-9.8125,-11.25,-10.03125,-11.0625,-10.40625,-9.4375,-9.40625,-9.34375,-9.96875,-8.59375,-6.65625,-5.90625,-6.6875,-5.9375,-6.84375,-5.84375,-4.53125,-4.21875,-3.25,-3.25,1.03125,-1.03125,-6.09375,-10.84375,-9.3125,-6.34375,-2.625,0.6875,-2.875,-2.0,-0.46875,-0.46875,-0.46875,-0.375,-0.4375,-9.15625,-20.09375,-2.1875,11.9375,8.6875,-1.21875,-3.875,-1.875,1.0,-0.46875,-2.0,-0.21875,-3.375,-7.71875,-8.75,-8.0625,-7.65625,-6.5,-6.4375,-10.8125,-11.71875,-7.5625,-5.59375,-2.28125,-0.25,0.71875,1.1875,-1.9375,-2.4375,2.65625,4.5625,4.25,6.34375,5.84375,0.46875,-5.4375,-8.5625,0.40625,5.65625,3.84375,2.5,-11.59375,-13.875,31.0625,31.125,31.03125,30.8125,31.3125,31.09375,33.6875,40.71875,46.53125,44.21875,33.28125,34.375,39.5,39.40625,37.15625,33.3125,23.59375,21.125,24.25,26.09375,23.3125,23.9375,21.96875,18.90625,17.34375,22.25,30.34375,28.96875,27.25,27.40625,29.53125,34.9375,38.59375,36.03125,34.59375,35.625,35.53125,40.59375,36.09375,25.875,18.53125,9.375,9.0625,7.40625,22.15625,44.28125,49.375,55.9375,1.0
-0.125,-0.09375,-0.09375,0.125,4.0625,5.28125,-10.4375,-4.375,-2.9375,-3.5,-5.65625,-9.78125,-9.0625,-8.75,-8.09375,-5.09375,-6.65625,-9.8125,-11.25,-10.03125,-11.0625,-10.40625,-9.4375,-9.40625,-9.34375,-9.96875,-8.59375,-6.65625,-5.90625,-6.6875,-5.9375,-6.84375,-5.84375,-4.53125,-4.21875,-3.25,-3.25,1.03125,-1.03125,-6.09375,-10.84375,-9.3125,-6.34375,-2.625,0.6875,-2.875,-2.0,-1.5,-0.46875,-0.46875,-0.375,-0.4375,-9.15625,-20.09375,-2.1875,11.9375,8.6875,-1.21875,-3.875,-1.875,1.0,-0.46875,-2.0,-0.21875,-3.375,-7.71875,-8.75,-8.0625,-7.65625,-6.5,-6.4375,-10.8125,-11.71875,-7.5625,-5.59375,-2.28125,-0.25,0.71875,1.1875,-1.9375,-2.4375,2.65625,4.5625,4.25,6.34375,5.84375,0.46875,-5.4375,-8.5625,0.40625,5.65625,3.84375,2.5,-11.59375,-13.875,-5.875,31.125,31.03125,30.8125,31.3125,31.09375,33.6875,40.71875,46.53125,44.21875,33.28125,34.375,39.5,39.40625,37.15625,33.3125,23.59375,21.125,24.25,26.09375,23.3125,23.9375,21.96875,18.90625,17.34375,22.25,30.34375,28.96875,27.25,27.40625,29.53125,34.9375,38.59375,36.03125,34.59375,35.625,35.53125,40.59375,36.09375,25.875,18.53125,9.375,9.0625,7.40625,22.15625,44.28125,49.375,55.9375,48.15625,1.0
-0.09375,-0.09375,0.125,4.0625,5.28125,-10.4375,-4.375,-2.9375,-3.5,-5.65625,-9.78125,-9.0625,-8.75,-8.09375,-5.09375,-6.65625,-9.8125,-11.25,-10.03125,-11.0625,-10.40625,-9.4375,-9.40625,-9.34375,-9.96875,-8.59375,-6.65625,-5.90625,-6.6875,-5.9375,-6.84375,-5.84375,-4.53125,-4.21875,-3.25,-3.25,1.03125,-1.03125,-6.09375,-10.84375,-9.3125,-6.34375,-2.625,0.6875,-2.875,-2.0,-1.5,0.4375,-0.46875,-0.375,-0.4375,-9.15625,-20.09375,-2.1875,11.9375,8.6875,-1.21875,-3.875,-1.875,1.0,-0.46875,-2.0,-0.21875,-3.375,-7.71875,-8.75,-8.0625,-7.65625,-6.5,-6.4375,-10.8125,-11.71875,-7.5625,-5.59375,-2.28125,-0.25,0.71875,1.1875,-1.9375,-2.4375,2.65625,4.5625,4.25,6.34375,5.84375,0.46875,-5.4375,-8.5625,0.40625,5.65625,3.84375,2.5,-11.59375,-13.875,-5.875,8.0625,31.03125,30.8125,31.3125,31.09375,33.6875,40.71875,46.53125,44.21875,33.28125,34.375,39.5,39.40625,37.15625,33.3125,23.59375,21.125,24.25,26.09375,23.3125,23.9375,21.96875,18.90625,17.34375,22.25,30.34375,28.96875,27.25,27.40625,29.53125,34.9375,38.59375,36.03125,34.59375,35.625,35.53125,40.59375,36.09375,25.875,18.53125,9.375,9.0625,7.40625,22.15625,44.28125,49.375,55.9375,48.15625,35.6875,1.0
-0.09375,0.125,4.0625,5.28125,-10.4375,-4.375,-2.9375,-3.5,-5.65625,-9.78125,-9.0625,-8.75,-8.09375,-5.09375,-6.65625,-9.8125,-11.25,-10.03125,-11.0625,-10.40625,-9.4375,-9.40625,-9.34375,-9.96875,-8.59375,-6.65625,-5.90625,-6.6875,-5.9375,-6.84375,-5.84375,-4.53125,-4.21875,-3.25,-3.25,1.03125,-1.03125,-6.09375,-10.84375,-9.3125,-6.34375,-2.625,0.6875,-2.875,-2.0,-1.5,0.4375,-1.84375,-0.375,-0.4375,-9.15625,-20.09375,-2.1875,11.9375,8.6875,-1.21875,-3.875,-1.875,1.0,-0.46875,-2.0,-0.21875,-3.375,-7.71875,-8.75,-8.0625,-7.65625,-6.5,-6.4375,-10.8125,-11.71875,-7.5625,-5.59375,-2.28125,-0.25,0.71875,1.1875,-1.9375,-2.4375,2.65625,4.5625,4.25,6.34375,5.84375,0.46875,-5.4375,-8.5625,0.40625,5.65625,3.84375,2.5,-11.59375,-13.875,-5.875,8.0625,12.78125,30.8125,31.3125,31.09375,33.6875,40.71875,46.53125,44.21875,33.28125,34.375,39.5,39.40625,37.15625,33.3125,23.59375,21.125,24.25,26.09375,23.3125,23.9375,21.96875,18.90625,17.34375,22.25,30.34375,28.96875,27.25,27.40625,29.53125,34.9375,38.59375,36.03125,34.59375,35.625,35.53125,40.59375,36.09375,25.875,18.53125,9.375,9.0625,7.40625,22.15625,44.28125,49.375,55.9375,48.15625,35.6875,27.3125,1.0
0.125,4.0625,5.28125,-10.4375,-4.375,-2.9375,-3.5,-5.65625,-9.78125,-9.0625,-8.75,-8.09375,-5.09375,-6.65625,-9.8125,-11.25,-10.03125,-11.0625,-10.40625,-9.4375,-9.40625,-9.34375,-9.96875,-8.59375,-6.65625,-5.90625,-6.6875,-5.9375,-6.84375,-5.84375,-4.53125,-4.21875,-3.25,-3.25,1.03125,-1.03125,-6.09375,-10.84375,-9.3125,-6.34375,-2.625,0.6875,-2.875,-2.0,-1.5,0.4375,-1.84375,-4.375,-0.4375,-9.15625,-20.09375,-2.1875,11.9375,8.6875,-1.21875,-3.875,-1.875,1.0,-0.46875,-2.0,-0.21875,-3.375,-7.71875,-8.75,-8.0625,-7.65625,-6.5,-6.4375,-10.8125,-11.71875,-7.5625,-5.59375,-2.28125,-0.25,0.71875,1.1875,-1.9375,-2.4375,2.65625,4.5625,4.25,6.34375,5.84375,0.46875,-5.4375,-8.5625,0.40625,5.65625,3.84375,2.5,-11.59375,-13.875,-5.875,8.0625,12.78125,17.125,31.3125,31.09375,33.6875,40.71875,46.53125,44.21875,33.28125,34.375,39.5,39.40625,37.15625,33.3125,23.59375,21.125,24.25,26.09375,23.3125,23.9375,21.96875,18.90625,17.34375,22.25,30.34375,28.96875,27.25,27.40625,29.53125,34.9375,38.59375,36.03125,34.59375,35.625,35.53125,40.59375,36.09375,25.875,18.53125,9.375,9.0625,7.40625,22.15625,44.28125,49.375,55.9375,48.15625,35.6875,27.3125,23.5,1.0
4.0625,5.28125,-10.4375,-4.375,-2.9375,-3.5,-5.65625,-9.78125,-9.0625,-8.75,-8.09375,-5.09375,-6.65625,-9.8125,-11.25,-10.03125,-11.0625,-10.40625,-9.4375,-9.40625,-9.34375,-9.96875,-8.59375,-6.65625,-5.90625,-6.6875,-5.9375,-6.84375,-5.84375,-4.53125,-4.21875,-3.25,-3.25,1.03125,-1.03125,-6.09375,-10.84375,-9.3125,-6.34375,-2.625,0.6875,-2.875,-2.0,-1.5,0.4375,-1.84375,-4.375,-7.9375,-9.15625,-20.09375,-2.1875,11.9375,8.6875,-1.21875,-3.875,-1.875,1.0,-0.46875,-2.0,-0.21875,-3.375,-7.71875,-8.75,-8.0625,-7.65625,-6.5,-6.4375,-10.8125,-11.71875,-7.5625,-5.59375,-2.28125,-0.25,0.71875,1.1875,-1.9375,-2.4375,2.65625,4.5625,4.25,6.34375,5.84375,0.46875,-5.4375,-8.5625,0.40625,5.65625,3.84375,2.5,-11.59375,-13.875,-5.875,8.0625,12.78125,17.125,11.53125,31.09375,33.6875,40.71875,46.53125,44.21875,33.28125,34.375,39.5,39.40625,37.15625,33.3125,23.59375,21.125,24.25,26.09375,23.3125,23.9375,21.96875,18.90625,17.34375,22.25,30.34375,28.96875,27.25,27.40625,29.53125,34.9375,38.59375,36.03125,34.59375,35.625,35.53125,40.59375,36.09375,25.875,18.53125,9.375,9.0625,7.40625,22.15625,44.28125,49.375,55.9375,48.15625,35.6875,27.3125,23.5,5.90625,1.0
5.28125,-10.4375,-4.375,-2.9375,-3.5,-5.65625,-9.78125,-9.0625,-8.75,-8.09375,-5.09375,-6.65625,-9.8125,-11.25,-10.03125,-11.0625,-10.40625,-9.4375,-9.40625,-9.34375,-9.96875,-8.59375,-6.65625,-5.90625,-6.6875,-5.9375,-6.84375,-5.84375,-4.53125,-4.21875,-3.25,-3.25,1.03125,-1.03125,-6.09375,-10.84375,-9.3125,-6.34375,-2.625,0.6875,-2.875,-2.0,-1.5,0.4375,-1.84375,-4.375,-7.9375,-5.75,-20.09375,-2.1875,11.9375,8.6875,-1.21875,-3.875,-1.875,1.0,-0.46875,-2.0,-0.21875,-3.375,-7.71875,-8.75,-8.0625,-7.65625,-6.5,-6.4375,-10.8125,-11.71875,-7.5625,-5.59375,-2.28125,-0.25,0.71875,1.1875,-1.9375,-2.4375,2.65625,4.5625,4.25,6.34375,5.84375,0.46875,-5.4375,-8.5625,0.40625,5.65625,3.84375,2.5,-11.59375,-13.875,-5.875,8.0625,12.78125,17.125,11.53125,8.28125,33.6875,40.71875,46.53125,44.21875,33.28125,34.375,39.5,39.40625,37.15625,33.3125,23.59375,21.125,24.25,26.09375,23.3125,23.9375,21.96875,18.90625,17.34375,22.25,30.34375,28.96875,27.25,27.40625,29.53125,34.9375,38.59375,36.03125,34.59375,35.625,35.53125,40.59375,36.09375,25.875,18.53125,9.375,9.0625,7.40625,22.15625,44.28125,49.375,55.9375,48.15625,35.6875,27.3125,23.5,5.90625,9.28125,1.0
-10.4375,-4.375,-2.9375,-3.5,-5.65625,-9.78125,-9.0625,-8.75,-8.09375,-5.09375,-6.65625,-9.8125,-11.25,-10.03125,-11.0625,-10.40625,-9.4375,-9.40625,-9.34375,-9.96875,-8.59375,-6.65625,-5.90625,-6.6875,-5.9375,-6.84375,-5.84375,-4.53125,-4.21875,-3.25,-3.25,1.03125,-1.03125,-6.09375,-10.84375,-9.3125,-6.34375,-2.625,0.6875,-2.875,-2.0,-1.5,0.4375,-1.84375,-4.375,-7.9375,-5.75,-1.65625,-2.1875,11.9375,8.6875,-1.21875,-3.875,-1.875,1.0,-0.46875,-2.0,-0.21875,-3.375,-7.71875,-8.75,-8.0625,-7.65625,-6.5,-6.4375,-10.8125,-11.71875,-7.5625,-5.59375,-2.28125,-0.25,0.71875,1.1875,-1.9375,-2.4375,2.65625,4.5625,4.25,6.34375,5.84375,0.46875,-5.4375,-8.5625,0.40625,5.65625,3.84375,2.5,-11.59375,-13.875,-5.875,8.0625,12.78125,17.125,11.53125,8.28125,-1.9375,40.71875,46.53125,44.21875,33.28125,34.375,39.5,39.40625,37.15625,33.3125,23.59375,21.125,24.25,26.09375,23.3125,23.9375,21.96875,18.90625,17.34375,22.25,30.34375,28.96875,27.25,27.40625,29.53125,34.9375,38.59375,36.03125,34.59375,35.625,35.53125,40.59375,36.09375,25.875,18.53125,9.375,9.0625,7.40625,22.15625,44.28125,49.375,55.9375,48.15625,35.6875,27.3125,23.5,5.90625,9.28125,28.6875,1.0
-4.375,-2.9375,-3.5,-5.65625,-9.78125,-9.0625,-8.75,-8.09375,-5.09375,-6.65625,-9.8125,-11.25,-10.03125,-11.0625,-10.40625,-9.4375,-9.40625,-9.34375,-9.96875,-8.59375,-6.65625,-5.90625,-6.6875,-5.9375,-6.84375,-5.84375,-4.53125,-4.21875,-3.25,-3.25,1.03125,-1.03125,-6.09375,-10.84375,-9.3125,-6.34375,-2.625,0.6875,-2.875,-2.0,-1.5,0.4375,-1.84375,-4.375,-7.9375,-5.75,-1.65625,-3.125,11.9375,8.6875,-1.21875,-3.875,-1.875,1.0,-0.46875,-2.0,-0.21875,-3.375,-7.71875,-8.75,-8.0625,-7.65625,-6.5,-6.4375,-10.8125,-11.71875,-7.5625,-5.59375,-2.28125,-0.25,0.71875,1.1875,-1.9375,-2.4375,2.65625,4.5625,4.25,6.34375,5.84375,0.46875,-5.4375,-8.5625,0.40625,5.65625,3.84375,2.5,-11.59375,-13.875,-5.875,8.0625,12.78125,17.125,11.53125,8.28125,-1.9375,-16.90625,46.53125,44.21875,33.28125,34.375,39.5,39.40625,37.15625,33.3125,23.59375,21.125,24.25,26.09375,23.3125,23.9375,21.96875,18.90625,17.34375,22.25,30.34375,28.96875,27.25,27.40625,29.53125,34.9375,38.59375,36.03125,34.59375,35.625,35.53125,40.59375,36.09375,25.875,18.53125,9.375,9.0625,7.40625,22.15625,44.28125,49.375,55.9375,48.15625,35.6875,27.3125,23.5,5.90625,9.28125,28.6875,61.5,1.0
-2.9375,-3.5,-5.65625,-9.78125,-9.0625,-8.75,-8.09375,-5.09375,-6.65625,-9.8125,-11.25,-10.03125,-11.0625,-10.40625,-9.4375,-9.40625,-9.34375,-9.96875,-8.59375,-6.65625,-5.90625,-6.6875,-5.9375,-6.84375,-5.84375,-4.53125,-4.21875,-3.25,-3.25,1.03125,-1.03125,-6.09375,-10.84375,-9.3125,-6.34375,-2.625,0.6875,-2.875,-2.0,-1.5,0.4375,-1.84375,-4.375,-7.9375,-5.75,-1.65625,-3.125,-6.53125,8.6875,-1.21875,-3.875,-1.875,1.0,-0.46875,-2.0,-0.21875,-3.375,-7.71875,-8.75,-8.0625,-7.65625,-6.5,-6.4375,-10.8125,-11.71875,-7.5625,-5.59375,-2.28125,-0.25,0.71875,1.1875,-1.9375,-2.4375,2.65625,4.5625,4.25,6.34375,5.84375,0.46875,-5.4375,-8.5625,0.40625,5.65625,3.84375,2.5,-11.59375,-13.875,-5.875,8.0625,12.78125,17.125,11.53125,8.28125,-1.9375,-16.90625,-24.0,44.21875,33.28125,34.375,39.5,39.40625,37.15625,33.3125,23.59375,21.125,24.25,26.09375,23.3125,23.9375,21.96875,18.90625,17.34375,22.25,30.34375,28.96875,27.25,27.40625,29.53125,34.9375,38.59375,36.03125,34.59375,35.625,35.53125,40.59375,36.09375,25.875,18.53125,9.375,9.0625,7.40625,22.15625,44.28125,49.375,55.9375,48.15625,35.6875,27.3125,23.5,5.90625,9.28125,28.6875,61.5,56.15625,1.0
-3.5,-5.65625,-9.78125,-9.0625,-8.75,-8.09375,-5.09375,-6.65625,-9.8125,-11.25,-10.03125,-11.0625,-10.40625,-9.4375,-9.40625,-9.34375,-9.96875,-8.59375,-6.65625,-5.90625,-6.6875,-5.9375,-6.84375,-5.84375,-4.53125,-4.21875,-3.25,-3.25,1.03125,-1.03125,-6.09375,-10.84375,-9.3125,-6.34375,-2.625,0.6875,-2.875,-2.0,-1.5,0.4375,-1.84375,-4.375,-7.9375,-5.75,-1.65625,-3.125,-6.53125,-2.15625,-1.21875,-3.875,-1.875,1.0,-0.46875,-2.0,-0.21875,-3.375,-7.71875,-8.75,-8.0625,-7.65625,-6.5,-6.4375,-10.8125,-11.71875,-7.5625,-5.59375,-2.28125,-0.25,0.71875,1.1875,-1.9375,-2.4375,2.65625,4.5625,4.25,6.34375,5.84375,0.46875,-5.4375,-8.5625,0.40625,5.65625,3.84375,2.5,-11.59375,-13.875,-5.875,8.0625,12.78125,17.125,11.53125,8.28125,-1.9375,-16.90625,-24.0,-9.125,33.28125,34.375,39.5,39.40625,37.15625,33.3125,23.59375,21.125,24.25,26.09375,23.3125,23.9375,21.96875,18.90625,17.34375,22.25,30.34375,28.96875,27.25,27.40625,29.53125,34.9375,38.59375,36.03125,34.59375,35.625,35.53125,40.59375,36.09375,25.875,18.53125,9.375,9.0625,7.40625,22.15625,44.28125,49.375,55.9375,48.15625,35.6875,27.3125,23.5,5.90625,9.28125,28.6875,61.5,56.15625,50.78125,1.0
-5.65625,-9.78125,-9.0625,-8.75,-8.09375,-5.09375,-6.65625,-9.8125,-11.25,-10.03125,-11.0625,-10.40625,-9.4375,-9.40625,-9.34375,-9.96875,-8.59375,-6.65625,-5.90625,-6.6875,-5.9375,-6.84375,-5.84375,-4.53125,-4.21875,-3.25,-3.25,1.03125,-1.03125,-6.09375,-10.84375,-9.3125,-6.34375,-2.625,0.6875,-2.875,-2.0,-1.5,0.4375,-1.84375,-4.375,-7.9375,-5.75,-1.65625,-3.125,-6.53125,-2.15625,-1.4375,-3.875,-1.875,1.0,-0.46875,-2.0,-0.21875,-3.375,-7.71875,-8.75,-8.0625,-7.65625,-6.5,-6.4375,-10.8125,-11.71875,-7.5625,-5.59375,-2.28125,-0.25,0.71875,1.1875,-1.9375,-2.4375,2.65625,4.5625,4.25,6.34375,5.84375,0.46875,-5.4375,-8.5625,0.40625,5.65625,3.84375,2.5,-11.59375,-13.875,-5.875,8.0625,12.78125,17.125,11.53125,8.28125,-1.9375,-16.90625,-24.0,-9.125,2.90625,34.375,39.5,39.40625,37.15625,33.3125,23.59375,21.125,24.25,26.09375,23.3125,23.9375,21.96875,18.90625,17.34375,22.25,30.34375,28.96875,27.25,27.40625,29.53125,34.9375,38.59375,36.03125,34.59375,35.625,35.53125,40.59375,36.09375,25.875,18.53125,9.375,9.0625,7.40625,22.15625,44.28125,49.375,55.9375,48.15625,35.6875,27.3125,23.5,5.90625,9.28125,28.6875,61.5,56.15625,50.78125,40.65625,1.0
-9.78125,-9.0625,-8.75,-8.09375,-5.09375,-6.65625,-9.8125,-11.25,-10.03125,-11.0625,-10.40625,-9.4375,-9.40625,-9.34375,-9.96875,-8.59375,-6.65625,-5.90625,-6.6875,-5.9375,-6.84375,-5.84375,-4.53125,-4.21875,-3.25,-3.25,1.03125,-1.03125,-6.09375,-10.84375,-9.3125,-6.34375,-2.625,0.6875,-2.875,-2.0,-1.5,0.4375,-1.84375,-4.375,-7.9375,-5.75,-1.65625,-3.125,-6.53125,-2.15625,-1.4375,-3.78125,-1.875,1.0,-0.46875,-2.0,-0.21875,-3.375,-7.71875,-8.75,-8.0625,-7.65625,-6.5,-6.4375,-10.8125,-11.71875,-7.5625,-5.59375,-2.28125,-0.25,0.71875,1.1875,-1.9375,-2.4375,2.65625,4.5625,4.25,6.34375,5.84375,0.46875,-5.4375,-8.5625,0.40625,5.65625,3.84375,2.5,-11.59375,-13.875,-5.875,8.0625,12.78125,17.125,11.53125,8.28125,-1.9375,-16.90625,-24.0,-9.125,2.90625,36.09375,39.5,39.40625,37.15625,33.3125,23.59375,21.125,24.25,26.09375,23.3125,23.9375,21.96875,18.90625,17.34375,22.25,30.34375,28.96875,27.25,27.40625,29.53125,34.9375,38.59375,36.03125,34.59375,35.625,35.53125,40.59375,36.09375,25.875,18.53125,9.375,9.0625,7.40625,22.15625,44.28125,49.375,55.9375,48.15625,35.6875,27.3125,23.5,5.90625,9.28125,28.6875,61.5,56.15625,50.78125,40.65625,33.8125,1.0
-9.0625,-8.75,-8.09375,-5.09375,-6.65625,-9.8125,-11.25,-10.03125,-11.0625,-10.40625,-9.4375,-9.40625,-9.34375,-9.96875,-8.59375,-6.65625,-5.90625,-6.6875,-5.9375,-6.84375,-5.84375,-4.53125,-4.21875,-3.25,-3.25,1.03125,-1.03125,-6.09375,-10.84375,-9.3125,-6.34375,-2.625,0.6875,-2.875,-2.0,-1.5,0.4375,-1.84375,-4.375,-7.9375,-5.75,-1.65625,-3.125,-6.53125,-2.15625,-1.4375,-3.78125,-5.375,1.0,-0.46875,-2.0,-0.21875,-3.375,-7.71875,-8.75,-8.0625,-7.65625,-6.5,-6.4375,-10.8125,-11.71875,-7.5625,-5.59375,-2.28125,-0.25,0.71875,1.1875,-1.9375,-2.4375,2.65625,4.5625,4.25,6.34375,5.84375,0.46875,-5.4375,-8.5625,0.40625,5.65625,3.84375,2.5,-11.59375,-13.875,-5.875,8.0625,12.78125,17.125,11.53125,8.28125,-1.9375,-16.90625,-24.0,-9.125,2.90625,36.09375,21.71875,39.40625,37.15625,33.3125,23.59375,21.125,24.25,26.09375,23.3125,23.9375,21.96875,18.90625,17.34375,22.25,30.34375,28.96875,27.25,27.40625,29.53125,34.9375,38.59375,36.03125,34.59375,35.625,35.53125,40.59375,36.09375,25.875,18.53125,9.375,9.0625,7.40625,22.15625,44.28125,49.375,55.9375,48.15625,35.6875,27.3125,23.5,5.90625,9.28125,28.6875,61.5,56.15625,50.78125,40.65625,33.8125,19.3125,1.0
-8.75,-8.09375,-5.09375,-6.65625,-9.8125,-11.25,-10.03125,-11.0625,-10.40625,-9.4375,-9.40625,-9.34375,-9.96875,-8.59375,-6.65625,-5.90625,-6.6875,-5.9375,-6.84375,-5.84375,-4.53125,-4.21875,-3.25,-3.25,1.03125,-1.03125,-6.09375,-10.84375,-9.3125,-6.34375,-2.625,0.6875,-2.875,-2.0,-1.5,0.4375,-1.84375,-4.375,-7.9375,-5.75,-1.65625,-3.125,-6.53125,-2.15625,-1.4375,-3.78125,-5.375,-6.1875,-0.46875,-2.0,-0.21875,-3.375,-7.71875,-8.75,-8.0625,-7.65625,-6.5,-6.4375,-10.8125,-11.71875,-7.5625,-5.59375,-2.28125,-0.25,0.71875,1.1875,-1.9375,-2.4375,2.65625,4.5625,4.25,6.34375,5.84375,0.46875,-5.4375,-8.5625,0.40625,5.65625,3.84375,2.5,-11.59375,-13.875,-5.875,8.0625,12.78125,17.125,11.53125,8.28125,-1.9375,-16.90625,-24.0,-9.125,2.90625,36.09375,21.71875,5.96875,37.15625,33.3125,23.59375,21.125,24.25,26.09375,23.3125,23.9375,21.96875,18.90625,17.34375,22.25,30.34375,28.96875,27.25,27.40625,29.53125,34.9375,38.59375,36.03125,34.59375,35.625,35.53125,40.59375,36.09375,25.875,18.53125,9.375,9.0625,7.40625,22.15625,44.28125,49.375,55.9375,48.15625,35.6875,27.3125,23.5,5.90625,9.28125,28.6875,61.5,56.15625,50.78125,40.65625,33.8125,19.3125,0.46875,1.0
-8.09375,-5.09375,-6.65625,-9.8125,-11.25,-10.03125,-11.0625,-10.40625,-9.4375,-9.40625,-9.34375,-9.96875,-8.59375,-6.65625,-5.90625,-6.6875,-5.9375,-6.84375,-5.84375,-4.53125,-4.21875,-3.25,-3.25,1.03125,-1.03125,-6.09375,-10.84375,-9.3125,-6.34375,-2.625,0.6875,-2.875,-2.0,-1.5,0.4375,-1.84375,-4.375,-7.9375,-5.75,-1.65625,-3.125,-6.53125,-2.15625,-1.4375,-3.78125,-5.375,-6.1875,-7.25,-2.0,-0.21875,-3.375,-7.71875,-8.75,-8.0625,-7.65625,-6.5,-6.4375,-10.8125,-11.71875,-7.5625,-5.59375,-2.28125,-0.25,0.71875,1.1875,-1.9375,-2.4375,2.65625,4.5625,4.25,6.34375,5.84375,0.46875,-5.4375,-8.5625,0.40625,5.65625,3.84375,2.5,-11.59375,-13.875,-5.875,8.0625,12.78125,17.125,11.53125,8.28125,-1.9375,-16.90625,-24.0,-9.125,2.90625,36.09375,21.71875,5.96875,-4.78125,33.3125,23.59375,21.125,24.25,26.09375,23.3125,23.9375,21.96875,18.90625,17.34375,22.25,30.34375,28.96875,27.25,27.40625,29.53125,34.9375,38.59375,36.03125,34.59375,35.625,35.53125,40.59375,36.09375,25.875,18.53125,9.375,9.0625,7.40625,22.15625,44.28125,49.375,55.9375,48.15625,35.6875,27.3125,23.5,5.90625,9.28125,28.6875,61.5,56.15625,50.78125,40.65625,33.8125,19.3125,0.46875,10.1875,1.0
-5.09375,-6.65625,-9.8125,-11.25,-10.03125,-11.0625,-10.40625,-9.4375,-9.40625,-9.34375,-9.96875,-8.59375,-6.65625,-5.90625,-6.6875,-5.9375,-6.84375,-5.84375,-4.53125,-4.21875,-3.25,-3.25,1.03125,-1.03125,-6.09375,-10.84375,-9.3125,-6.34375,-2.625,0.6875,-2.875,-2.0,-1.5,0.4375,-1.84375,-4.375,-7.9375,-5.75,-1.65625,-3.125,-6.53125,-2.15625,-1.4375,-3.78125,-5.375,-6.1875,-7.25,-7.1875,-0.21875,-3.375,-7.71875,-8.75,-8.0625,-7.65625,-6.5,-6.4375,-10.8125,-11.71875,-7.5625,-5.59375,-2.28125,-0.25,0.71875,1.1875,-1.9375,-2.4375,2.65625,4.5625,4.25,6.34375,5.84375,0.46875,-5.4375,-8.5625,0.40625,5.65625,3.84375,2.5,-11.59375,-13.875,-5.875,8.0625,12.78125,17.125,11.53125,8.28125,-1.9375,-16.90625,-24.0,-9.125,2.90625,36.09375,21.71875,5.96875,-4.78125,-22.125,23.59375,21.125,24.25,26.09375,23.3125,23.9375,21.96875,18.90625,17.34375,22.25,30.34375,28.96875,27.25,27.40625,29.53125,34.9375,38.59375,36.03125,34.59375,35.625,35.53125,40.59375,36.09375,25.875,18.53125,9.375,9.0625,7.40625,22.15625,44.28125,49.375,55.9375,48.15625,35.6875,27.3125,23.5,5.90625,9.28125,28.6875,61.5,56.15625,50.78125,40.65625,33.8125,19.3125,0.46875,10.1875,43.03125,1.0
-6.65625,-9.8125,-11.25,-10.03125,-11.0625,-10.40625,-9.4375,-9.40625,-9.34375,-9.96875,-8.59375,-6.65625,-5.90625,-6.6875,-5.9375,-6.84375,-5.84375,-4.53125,-4.21875,-3.25,-3.25,1.03125,-1.03125,-6.09375,-10.84375,-9.3125,-6.34375,-2.625,0.6875,-2.875,-2.0,-1.5,0.4375,-1.84375,-4.375,-7.9375,-5.75,-1.65625,-3.125,-6.53125,-2.15625,-1.4375,-3.78125,-5.375,-6.1875,-7.25,-7.1875,-4.875,-3.375,-7.71875,-8.75,-8.0625,-7.65625,-6.5,-6.4375,-10.8125,-11.71875,-7.5625,-5.59375,-2.28125,-0.25,0.71875,1.1875,-1.9375,-2.4375,2.65625,4.5625,4.25,6.34375,5.84375,0.46875,-5.4375,-8.5625,0.40625,5.65625,3.84375,2.5,-11.59375,-13.875,-5.875,8.0625,12.78125,17.125,11.53125,8.28125,-1.9375,-16.90625,-24.0,-9.125,2.90625,36.09375,21.71875,5.96875,-4.78125,-22.125,-25.0,21.125,24.25,26.09375,23.3125,23.9375,21.96875,18.90625,17.34375,22.25,30.34375,28.96875,27.25,27.40625,29.53125,34.9375,38.59375,36.03125,34.59375,35.625,35.53125,40.59375,36.09375,25.875,18.53125,9.375,9.0625,7.40625,22.15625,44.28125,49.375,55.9375,48.15625,35.6875,27.3125,23.5,5.90625,9.28125,28.6875,61.5,56.15625,50.78125,40.65625,33.8125,19.3125,0.46875,10.1875,43.03125,55.15625,1.0
-9.8125,-11.25,-10.03125,-11.0625,-10.40625,-9.4375,-9.40625,-9.34375,-9.96875,-8.59375,-6.65625,-5.90625,-6.6875,-5.9375,-6.84375,-5.84375,-4.53125,-4.21875,-3.25,-3.25,1.03125,-1.03125,-6.09375,-10.84375,-9.3125,-6.34375,-2.625,0.6875,-2.875,-2.0,-1.5,0.4375,-1.84375,-4.375,-7.9375,-5.75,-1.65625,-3.125,-6.53125,-2.15625,-1.4375,-3.78125,-5.375,-6.1875,-7.25,-7.1875,-4.875,-3.9375,-7.71875,-8.75,-8.0625,-7.65625,-6.5,-6.4375,-10.8125,-11.71875,-7.5625,-5.59375,-2.28125,-0.25,0.71875,1.1875,-1.9375,-2.4375,2.65625,4.5625,4.25,6.34375,5.84375,0.46875,-5.4375,-8.5625,0.40625,5.65625,3.84375,2.5,-11.59375,-13.875,-5.875,8.0625,12.78125,17.125,11.53125,8.28125,-1.9375,-16.90625,-24.0,-9.125,2.90625,36.09375,21.71875,5.96875,-4.78125,-22.125,-25.0,-12.65625,24.25,26.09375,23.3125,23.9375,21.96875,18.90625,17.34375,22.25,30.34375,28.96875,27.25,27.40625,29.53125,34.9375,38.59375,36.03125,34.59375,35.625,35.53125,40.59375,36.09375,25.875,18.53125,9.375,9.0625,7.40625,22.15625,44.28125,49.375,55.9375,48.15625,35.6875,27.3125,23.5,5.90625,9.28125,28.6875,61.5,56.15625,50.78125,40.65625,33.8125,19.3125,0.46875,10.1875,43.03125,55.15625,52.78125,1.0
-11.25,-10.03125,-11.0625,-10.40625,-9.4375,-9.40625,-9.34375,-9.96875,-8.59375,-6.65625,-5.90625,-6.6875,-5.9375,-6.84375,-5.84375,-4.53125,-4.21875,-3.25,-3.25,1.03125,-1.03125,-6.09375,-10.84375,-9.3125,-6.34375,-2.625,0.6875,-2.875,-2.0,-1.5,0.4375,-1.84375,-4.375,-7.9375,-5.75,-1.65625,-3.125,-6.53125,-2.15625,-1.4375,-3.78125,-5.375,-6.1875,-7.25,-7.1875,-4.875,-3.9375,1.9375,-8.75,-8.0625,-7.65625,-6.5,-6.4375,-10.8125,-11.71875,-7.5625,-5.59375,-2.28125,-0.25,0.71875,1.1875,-1.9375,-2.4375,2.65625,4.5625,4.25,6.34375,5.84375,0.46875,-5.4375,-8.5625,0.40625,5.65625,3.84375,2.5,-11.59375,-13.875,-5.875,8.0625,12.78125,17.125,11.53125,8.28125,-1.9375,-16.90625,-24.0,-9.125,2.90625,36.09375,21.71875,5.96875,-4.78125,-22.125,-25.0,-12.65625,1.0,26.09375,23.3125,23.9375,21.96875,18.90625,17.34375,22.25,30.34375,28.96875,27.25,27.40625,29.53125,34.9375,38.59375,36.03125,34.59375,35.625,35.53125,40.59375,36.09375,25.875,18.53125,9.375,9.0625,7.40625,22.15625,44.28125,49.375,55.9375,48.15625,35.6875,27.3125,23.5,5.90625,9.28125,28.6875,61.5,56.15625,50.78125,40.65625,33.8125,19.3125,0.46875,10.1875,43.03125,55.15625,52.78125,39.21875,1.0
-10.03125,-11.0625,-10.40625,-9.4375,-9.40625,-9.34375,-9.96875,-8.59375,-6.65625,-5.90625,-6.6875,-5.9375,-6.84375,-5.84375,-4.53125,-4.21875,-3.25,-3.25,1.03125,-1.03125,-6.09375,-10.84375,-9.3125,-6.34375,-2.625,0.6875,-2.875,-2.0,-1.5,0.4375,-1.84375,-4.375,-7.9375,-5.75,-1.65625,-3.125,-6.53125,-2.15625,-1.4375,-3.78125,-5.375,-6.1875,-7.25,-7.1875,-4.875,-3.9375,1.9375,-4.375,-8.0625,-7.65625,-6.5,-6.4375,-10.8125,-11.71875,-7.5625,-5.59375,-2.28125,-0.25,0.71875,1.1875,-1.9375,-2.4375,2.65625,4.5625,4.25,6.34375,5.84375,0.46875,-5.4375,-8.5625,0.40625,5.65625,3.84375,2.5,-11.59375,-13.875,-5.875,8.0625,12.78125,17.125,11.53125,8.28125,-1.9375,-16.90625,-24.0,-9.125,2.90625,36.09375,21.71875,5.96875,-4.78125,-22.125,-25.0,-12.65625,1.0,22.78125,23.3125,23.9375,21.96875,18.90625,17.34375,22.25,30.34375,28.96875,27.25,27.40625,29.53125,34.9375,38.59375,36.03125,34.59375,35.625,35.53125,40.59375,36.09375,25.875,18.53125,9.375,9.0625,7.40625,22.15625,44.28125,49.375,55.9375,48.15625,35.6875,27.3125,23.5,5.90625,9.28125,28.6875,61.5,56.15625,50.78125,40.65625,33.8125,19.3125,0.46875,10.1875,43.03125,55.15625,52.78125,39.21875,42.71875,1.0
-11.0625,-10.40625,-9.4375,-9.40625,-9.34375,-9.96875,-8.59375,-6.65625,-5.90625,-6.6875,-5.9375,-6.84375,-5.84375,-4.53125,-4.21875,-3.25,-3.25,1.03125,-1.03125,-6.09375,-10.84375,-9.3125,-6.34375,-2.625,0.6875,-2.875,-2.0,-1.5,0.4375,-1.84375,-4.375,-7.9375,-5.75,-1.65625,-3.125,-6.53125,-2.15625,-1.4375,-3.78125,-5.375,-6.1875,-7.25,-7.1875,-4.875,-3.9375,1.9375,-4.375,-8.3125,-7.65625,-6.5,-6.4375,-10.8125,-11.71875,-7.5625,-5.59375,-2.28125,-0.25,0.71875,1.1875,-1.9375,-2.4375,2.65625,4.5625,4.25,6.34375,5.84375,0.46875,-5.4375,-8.5625,0.40625,5.65625,3.84375,2.5,-11.59375,-13.875,-5.875,8.0625,12.78125,17.125,11.53125,8.28125,-1.9375,-16.90625,-24.0,-9.125,2.90625,36.09375,21.71875,5.96875,-4.78125,-22.125,-25.0,-12.65625,1.0,22.78125,29.90625,23.9375,21.96875,18.90625,17.34375,22.25,30.34375,28.96875,27.25,27.40625,29.53125,34.9375,38.59375,36.03125,34.59375,35.625,35.53125,40.59375,36.09375,25.875,18.53125,9.375,9.0625,7.40625,22.15625,44.28125,49.375,55.9375,48.15625,35.6875,27.3125,23.5,5.90625,9.28125,28.6875,61.5,56.15625,50.78125,40.65625,33.8125,19.3125,0.46875,10.1875,43.03125,55.15625,52.78125,39.21875,42.71875,9.40625,1.0
-10.40625,-9.4375,-9.40625,-9.34375,-9.96875,-8.59375,-6.65625,-5.90625,-6.6875,-5.9375,-6.84375,-5.84375,-4.53125,-4.21875,-3.25,-3.25,1.03125,-1.03125,-6.09375,-10.84375,-9.3125,-6.34375,-2.625,0.6875,-2.875,-2.0,-1.5,0.4375,-1.84375,-4.375,-7.9375,-5.75,-1.65625,-3.125,-6.53125,-2.15625,-1.4375,-3.78125,-5.375,-6.1875,-7.25,-7.1875,-4.875,-3.9375,1.9375,-4.375,-8.3125,-6.125,-6.5,-6.4375,-10.8125,-11.71875,-7.5625,-5.59375,-2.28125,-0.25,0.71875,1.1875,-1.9375,-2.4375,2.65625,4.5625,4.25,6.34375,5.84375,0.46875,-5.4375,-8.5625,0.40625,5.65625,3.84375,2.5,-11.59375,-13.875,-5.875,8.0625,12.78125,17.125,11.53125,8.28125,-1.9375,-16.90625,-24.0,-9.125,2.90625,36.09375,21.71875,5.96875,-4.78125,-22.125,-25.0,-12.65625,1.0,22.78125,29.90625,14.75,21.96875,18.90625,17.34375,22.25,30.34375,28.96875,27.25,27.40625,29.53125,34.9375,38.59375,36.03125,34.59375,35.625,35.53125,40.59375,36.09375,25.875,18.53125,9.375,9.0625,7.40625,22.15625,44.28125,49.375,55.9375,48.15625,35.6875,27.3125,23.5,5.90625,9.28125,28.6875,61.5,56.15625,50.78125,40.65625,33.8125,19.3125,0.46875,10.1875,43.03125,55.15625,52.78125,39.21875,42.71875,9.40625,11.9375,1.0
-9.4375,-9.40625,-9.34375,-9.96875,-8.59375,-6.65625,-5.90625,-6.6875,-5.9375,-6.84375,-5.84375,-4.53125,-4.21875,-3.25,-3.25,1.03125,-1.03125,-6.09375,-10.84375,-9.3125,-6.34375,-2.625,0.6875,-2.875,-2.0,-1.5,0.4375,-1.84375,-4.375,-7.9375,-5.75,-1.65625,-3.125,-6.53125,-2.15625,-1.4375,-3.78125,-5.375,-6.1875,-7.25,-7.1875,-4.875,-3.9375,1.9375,-4.375,-8.3125,-6.125,-4.34375,-6.4375,-10.8125,-11.71875,-7.5625,-5.59375,-2.28125,-0.25,0.71875,1.1875,-1.9375,-2.4375,2.65625,4.5625,4.25,6.34375,5.84375,0.46875,-5.4375,-8.5625,0.40625,5.65625,3.84375,2.5,-11.59375,-13.875,-5.875,8.0625,12.78125,17.125,11.53125,8.28125,-1.9375,-16.90625,-24.0,-9.125,2.90625,36.09375,21.71875,5.96875,-4.78125,-22.125,-25.0,-12.65625,1.0,22.78125,29.90625,14.75,0.5625,18.90625,17.34375,22.25,30.34375,28.96875,27.25,27.40625,29.53125,34.9375,38.59375,36.03125,34.59375,35.625,35.53125,40.59375,36.09375,25.875,18.53125,9.375,9.0625,7.40625,22.15625,44.28125,49.375,55.9375,48.15625,35.6875,27.3125,23.5,5.90625,9.28125,28.6875,61.5,56.15625,50.78125,40.65625,33.8125,19.3125,0.46875,10.1875,43.03125,55.15625,52.78125,39.21875,42.71875,9.40625,11.9375,15.90625,1.0
-9.40625,-9.34375,-9.96875,-8.59375,-6.65625,-5.90625,-6.6875,-5.9375,-6.84375,-5.84375,-4.53125,-4.21875,-3.25,-3.25,1.03125,-1.03125,-6.09375,-10.84375,-9.3125,-6.34375,-2.625,0.6875,-2.875,-2.0,-1.5,0.4375,-1.84375,-4.375,-7.9375,-5.75,-1.65625,-3.125,-6.53125,-2.15625,-1.4375,-3.78125,-5.375,-6.1875,-7.25,-7.1875,-4.875,-3.9375,1.9375,-4.375,-8.3125,-6.125,-4.34375,-5.46875,-10.8125,-11.71875,-7.5625,-5.59375,-2.28125,-0.25,0.71875,1.1875,-1.9375,-2.4375,2.65625,4.5625,4.25,6.34375,5.84375,0.46875,-5.4375,-8.5625,0.40625,5.65625,3.84375,2.5,-11.59375,-13.875,-5.875,8.0625,12.78125,17.125,11.53125,8.28125,-1.9375,-16.90625,-24.0,-9.125,2.90625,36.09375,21.71875,5.96875,-4.78125,-22.125,-25.0,-12.65625,1.0,22.78125,29.90625,14.75,0.5625,-19.84375,17.34375,22.25,30.34375,28.96875,27.25,27.40625,29.53125,34.9375,38.59375,36.03125,34.59375,35.625,35.53125,40.59375,36.09375,25.875,18.53125,9.375,9.0625,7.40625,22.15625,44.28125,49.375,55.9375,48.15625,35.6875,27.3125,23.5,5.90625,9.28125,28.6875,61.5,56.15625,50.78125,40.65625,33.8125,19.3125,0.46875,10.1875,43.03125,55.15625,52.78125,39.21875,42.71875,9.40625,11.9375,15.90625,37.78125,1.0
-9.34375,-9.96875,-8.59375,-6.65625,-5.90625,-6.6875,-5.9375,-6.84375,-5.84375,-4.53125,-4.21875,-3.25,-3.25,1.03125,-1.03125,-6.09375,-10.84375,-9.3125,-6.34375,-2.625,0.6875,-2.875,-2.0,-1.5,0.4375,-1.84375,-4.375,-7.9375,-5.75,-1.65625,-3.125,-6.53125,-2.15625,-1.4375,-3.78125,-5.375,-6.1875,-7.25,-7.1875,-4.875,-3.9375,1.9375,-4.375,-8.3125,-6.125,-4.34375,-5.46875,-6.125,-11.71875,-7.5625,-5.59375,-2.28125,-0.25,0.71875,1.1875,-1.9375,-2.4375,2.65625,4.5625,4.25,6.34375,5.84375,0.46875,-5.4375,-8.5625,0.40625,5.65625,3.84375,2.5,-11.59375,-13.875,-5.875,8.0625,12.78125,17.125,11.53125,8.28125,-1.9375,-16.90625,-24.0,-9.125,2.90625,36.09375,21.71875,5.96875,-4.78125,-22.125,-25.0,-12.65625,1.0,22.78125,29.90625,14.75,0.5625,-19.84375,-30.84375,22.25,30.34375,28.96875,27.25,27.40625,29.53125,34.9375,38.59375,36.03125,34.59375,35.625,35.53125,40.59375,36.09375,25.875,18.53125,9.375,9.0625,7.40625,22.15625,44.28125,49.375,55.9375,48.15625,35.6875,27.3125,23.5,5.90625,9.28125,28.6875,61.5,56.15625,50.78125,40.65625,33.8125,19.3125,0.46875,10.1875,43.03125,55.15625,52.78125,39.21875,42.71875,9.40625,11.9375,15.90625,37.78125,53.375,1.0
-9.96875,-8.59375,-6.65625,-5.90625,-6.6875,-5.9375,-6.84375,-5.84375,-4.53125,-4.21875,-3.25,-3.25,1.03125,-1.03125,-6.09375,-10.84375,-9.3125,-6.34375,-2.625,0.6875,-2.875,-2.0,-1.5,0.4375,-1.84375,-4.375,-7.9375,-5.75,-1.65625,-3.125,-6.53125,-2.15625,-1.4375,-3.78125,-5.375,-6.1875,-7.25,-7.1875,-4.875,-3.9375,1.9375,-4.375,-8.3125,-6.125,-4.34375,-5.46875,-6.125,-7.28125,-7.5625,-5.59375,-2.28125,-0.25,0.71875,1.1875,-1.9375,-2.4375,2.65625,4.5625,4.25,6.34375,5.84375,0.46875,-5.4375,-8.5625,0.40625,5.65625,3.84375,2.5,-11.59375,-13.875,-5.875,8.0625,12.78125,17.125,11.53125,8.28125,-1.9375,-16.90625,-24.0,-9.125,2.90625,36.09375,21.71875,5.96875,-4.78125,-22.125,-25.0,-12.65625,1.0,22.78125,29.90625,14.75,0.5625,-19.84375,-30.84375,-15.9375,30.34375,28.96875,27.25,27.40625,29.53125,34.9375,38.59375,36.03125,34.59375,35.625,35.53125,40.59375,36.09375,25.875,18.53125,9.375,9.0625,7.40625,22.15625,44.28125,49.375,55.9375,48.15625,35.6875,27.3125,23.5,5.90625,9.28125,28.6875,61.5,56.15625,50.78125,40.65625,33.8125,19.3125,0.46875,10.1875,43.03125,55.15625,52.78125,39.21875,42.71875,9.40625,11.9375,15.90625,37.78125,53.375,51.96875,1.0
-8.59375,-6.65625,-5.90625,-6.6875,-5.9375,-6.84375,-5.84375,-4.53125,-4.21875,-3.25,-3.25,1.03125,-1.03125,-6.09375,-10.84375,-9.3125,-6.34375,-2.625,0.6875,-2.875,-2.0,-1.5,0.4375,-1.84375,-4.375,-7.9375,-5.75,-1.65625,-3.125,-6.53125,-2.15625,-1.4375,-3.78125,-5.375,-6.1875,-7.25,-7.1875,-4.875,-3.9375,1.9375,-4.375,-8.3125,-6.125,-4.34375,-5.46875,-6.125,-7.28125,-2.25,-5.59375,-2.28125,-0.25,0.71875,1.1875,-1.9375,-2.4375,2.65625,4.5625,4.25,6.34375,5.84375,0.46875,-5.4375,-8.5625,0.40625,5.65625,3.84375,2.5,-11.59375,-13.875,-5.875,8.0625,12.78125,17.125,11.53125,8.28125,-1.9375,-16.90625,-24.0,-9.125,2.90625,36.09375,21.71875,5.96875,-4.78125,-22.125,-25.0,-12.65625,1.0,22.78125,29.90625,14.75,0.5625,-19.84375,-30.84375,-15.9375,-7.125,28.96875,27.25,27.40625,29.53125,34.9375,38.59375,36.03125,34.59375,35.625,35.53125,40.59375,36.09375,25.875,18.53125,9.375,9.0625,7.40625,22.15625,44.28125,49.375,55.9375,48.15625,35.6875,27.3125,23.5,5.90625,9.28125,28.6875,61.5,56.15625,50.78125,40.65625,33.8125,19.3125,0.46875,10.1875,43.03125,55.15625,52.78125,39.21875,42.71875,9.40625,11.9375,15.90625,37.78125,53.375,51.96875,27.03125,1.0
-6.65625,-5.90625,-6.6875,-5.9375,-6.84375,-5.84375,-4.53125,-4.21875,-3.25,-3.25,1.03125,-1.03125,-6.09375,-10.84375,-9.3125,-6.34375,-2.625,0.6875,-2.875,-2.0,-1.5,0.4375,-1.84375,-4.375,-7.9375,-5.75,-1.65625,-3.125,-6.53125,-2.15625,-1.4375,-3.78125,-5.375,-6.1875,-7.25,-7.1875,-4.875,-3.9375,1.9375,-4.375,-8.3125,-6.125,-4.34375,-5.46875,-6.125,-7.28125,-2.25,-5.96875,-2.28125,-0.25,0.71875,1.1875,-1.9375,-2.4375,2.65625,4.5625,4.25,6.34375,5.84375,0.46875,-5.4375,-8.5625,0.40625,5.65625,3.84375,2.5,-11.59375,-13.875,-5.875,8.0625,12.78125,17.125,11.53125,8.28125,-1.9375,-16.90625,-24.0,-9.125,2.90625,36.09375,21.71875,5.96875,-4.78125,-22.125,-25.0,-12.65625,1.0,22.78125,29.90625,14.75,0.5625,-19.84375,-30.84375,-15.9375,-7.125,2.71875,27.25,27.40625,29.53125,34.9375,38.59375,36.03125,34.59375,35.625,35.53125,40.59375,36.09375,25.875,18.53125,9.375,9.0625,7.40625,22.15625,44.28125,49.375,55.9375,48.15625,35.6875,27.3125,23.5,5.90625,9.28125,28.6875,61.5,56.15625,50.78125,40.65625,33.8125,19.3125,0.46875,10.1875,43.03125,55.15625,52.78125,39.21875,42.71875,9.40625,11.9375,15.90625,37.78125,53.375,51.96875,27.03125,30.0625,1.0
-5.90625,-6.6875,-5.9375,-6.84375,-5.84375,-4.53125,-4.21875,-3.25,-3.25,1.03125,-1.03125,-6.09375,-10.84375,-9.3125,-6.34375,-2.625,0.6875,-2.875,-2.0,-1.5,0.4375,-1.84375,-4.375,-7.9375,-5.75,-1.65625,-3.125,-6.53125,-2.15625,-1.4375,-3.78125,-5.375,-6.1875,-7.25,-7.1875,-4.875,-3.9375,1.9375,-4.375,-8.3125,-6.125,-4.34375,-5.46875,-6.125,-7.28125,-2.25,-5.96875,-8.75,-0.25,0.71875,1.1875,-1.9375,-2.4375,2.65625,4.5625,4.25,6.34375,5.84375,0.46875,-5.4375,-8.5625,0.40625,5.65625,3.84375,2.5,-11.59375,-13.875,-5.875,8.0625,12.78125,17.125,11.53125,8.28125,-1.9375,-16.90625,-24.0,-9.125,2.90625,36.09375,21.71875,5.96875,-4.78125,-22.125,-25.0,-12.65625,1.0,22.78125,29.90625,14.75,0.5625,-19.84375,-30.84375,-15.9375,-7.125,2.71875,11.78125,27.40625,29.53125,34.9375,38.59375,36.03125,34.59375,35.625,35.53125,40.59375,36.09375,25.875,18.53125,9.375,9.0625,7.40625,22.15625,44.28125,49.375,55.9375,48.15625,35.6875,27.3125,23.5,5.90625,9.28125,28.6875,61.5,56.15625,50.78125,40.65625,33.8125,19.3125,0.46875,10.1875,43.03125,55.15625,52.78125,39.21875,42.71875,9.40625,11.9375,15.90625,37.78125,53.375,51.96875,27.03125,30.0625,22.875,1.0
-6.6875,-5.9375,-6.84375,-5.84375,-4.53125,-4.21875,-3.25,-3.25,1.03125,-1.03125,-6.09375,-10.84375,-9.3125,-6.34375,-2.625,0.6875,-2.875,-2.0,-1.5,0.4375,-1.84375,-4.375,-7.9375,-5.75,-1.65625,-3.125,-6.53125,-2.15625,-1.4375,-3.78125,-5.375,-6.1875,-7.25,-7.1875,-4.875,-3.9375,1.9375,-4.375,-8.3125,-6.125,-4.34375,-5.46875,-6.125,-7.28125,-2.25,-5.96875,-8.75,-8.03125,0.71875,1.1875,-1.9375,-2.4375,2.65625,4.5625,4.25,6.34375,5.84375,0.46875,-5.4375,-8.5625,0.40625,5.65625,3.84375,2.5,-11.59375,-13.875,-5.875,8.0625,12.78125,17.125,11.53125,8.28125,-1.9375,-16.90625,-24.0,-9.125,2.90625,36.09375,21.71875,5.96875,-4.78125,-22.125,-25.0,-12.65625,1.0,22.78125,29.90625,14.75,0.5625,-19.84375,-30.84375,-15.9375,-7.125,2.71875,11.78125,8.5,29.53125,34.9375,38.59375,36.03125,34.59375,35.625,35.53125,40.59375,36.09375,25.875,18.53125,9.375,9.0625,7.40625,22.15625,44.28125,49.375,55.9375,48.15625,35.6875,27.3125,23.5,5.90625,9.28125,28.6875,61.5,56.15625,50.78125,40.65625,33.8125,19.3125,0.46875,10.1875,43.03125,55.15625,52.78125,39.21875,42.71875,9.40625,11.9375,15.90625,37.78125,53.375,51.96875,27.03125,30.0625,22.875,14.65625,1.0
-5.9375,-6.84375,-5.84375,-4.53125,-4.21875,-3.25,-3.25,1.03125,-1.03125,-6.09375,-10.84375,-9.3125,-6.34375,-2.625,0.6875,-2.875,-2.0,-1.5,0.4375,-1.84375,-4.375,-7.9375,-5.75,-1.65625,-3.125,-6.53125,-2.15625,-1.4375,-3.78125,-5.375,-6.1875,-7.25,-7.1875,-4.875,-3.9375,1.9375,-4.375,-8.3125,-6.125,-4.34375,-5.46875,-6.125,-7.28125,-2.25,-5.96875,-8.75,-8.03125,-7.0,1.1875,-1.9375,-2.4375,2.65625,4.5625,4.25,6.34375,5.84375,0.46875,-5.4375,-8.5625,0.40625,5.65625,3.84375,2.5,-11.59375,-13.875,-5.875,8.0625,12.78125,17.125,11.53125,8.28125,-1.9375,-16.90625,-24.0,-9.125,2.90625,36.09375,21.71875,5.96875,-4.78125,-22.125,-25.0,-12.65625,1.0,22.78125,29.90625,14.75,0.5625,-19.84375,-30.84375,-15.9375,-7.125,2.71875,11.78125,8.5,-8.65625,34.9375,38.59375,36.03125,34.59375,35.625,35.53125,40.59375,36.09375,25.875,18.53125,9.375,9.0625,7.40625,22.15625,44.28125,49.375,55.9375,48.15625,35.6875,27.3125,23.5,5.90625,9.28125,28.6875,61.5,56.15625,50.78125,40.65625,33.8125,19.3125,0.46875,10.1875,43.03125,55.15625,52.78125,39.21875,42.71875,9.40625,11.9375,15.90625,37.78125,53.375,51.96875,27.03125,30.0625,22.875,14.65625,15.1875,1.0
-6.84375,-5.84375,-4.53125,-4.21875,-3.25,-3.25,1.03125,-1.03125,-6.09375,-10.84375,-9.3125,-6.34375,-2.625,0.6875,-2.875,-2.0,-1.5,0.4375,-1.84375,-4.375,-7.9375,-5.75,-1.65625,-3.125,-6.53125,-2.15625,-1.4375,-3.78125,-5.375,-6.1875,-7.25,-7.1875,-4.875,-3.9375,1.9375,-4.375,-8.3125,-6.125,-4.34375,-5.46875,-6.125,-7.28125,-2.25,-5.96875,-8.75,-8.03125,-7.0,-5.40625,-1.9375,-2.4375,2.65625,4.5625,4.25,6.34375,5.84375,0.46875,-5.4375,-8.5625,0.40625,5.65625,3.84375,2.5,-11.59375,-13.875,-5.875,8.0625,12.78125,17.125,11.53125,8.28125,-1.9375,-16.90625,-24.0,-9.125,2.90625,36.09375,21.71875,5.96875,-4.78125,-22.125,-25.0,-12.65625,1.0,22.78125,29.90625,14.75,0.5625,-19.84375,-30.84375,-15.9375,-7.125,2.71875,11.78125,8.5,-8.65625,-20.125,38.59375,36.03125,34.59375,35.625,35.53125,40.59375,36.09375,25.875,18.53125,9.375,9.0625,7.40625,22.15625,44.28125,49.375,55.9375,48.15625,35.6875,27.3125,23.5,5.90625,9.28125,28.6875,61.5,56.15625,50.78125,40.65625,33.8125,19.3125,0.46875,10.1875,43.03125,55.15625,52.78125,39.21875,42.71875,9.40625,11.9375,15.90625,37.78125,53.375,51.96875,27.03125,30.0625,22.875,14.65625,15.1875,30.78125,1.0
-5.84375,-4.53125,-4.21875,-3.25,-3.25,1.03125,-1.03125,-6.09375,-10.84375,-9.3125,-6.34375,-2.625,0.6875,-2.875,-2.0,-1.5,0.4375,-1.84375,-4.375,-7.9375,-5.75,-1.65625,-3.125,-6.53125,-2.15625,-1.4375,-3.78125,-5.375,-6.1875,-7.25,-7.1875,-4.875,-3.9375,1.9375,-4.375,-8.3125,-6.125,-4.34375,-5.46875,-6.125,-7.28125,-2.25,-5.96875,-8.75,-8.03125,-7.0,-5.40625,-4.5,-2.4375,2.65625,4.5625,4.25,6.34375,5.84375,0.46875,-5.4375,-8.5625,0.40625,5.65625,3.84375,2.5,-11.59375,-13.875,-5.875,8.0625,12.78125,17.125,11.53125,8.28125,-1.9375,-16.90625,-24.0,-9.125,2.90625,36.09375,21.71875,5.96875,-4.78125,-22.125,-25.0,-12.65625,1.0,22.78125,29.90625,14.75,0.5625,-19.84375,-30.84375,-15.9375,-7.125,2.71875,11.78125,8.5,-8.65625,-20.125,-22.125,36.03125,34.59375,35.625,35.53125,40.59375,36.09375,25.875,18.53125,9.375,9.0625,7.40625,22.15625,44.28125,49.375,55.9375,48.15625,35.6875,27.3125,23.5,5.90625,9.28125,28.6875,61.5,56.15625,50.78125,40.65625,33.8125,19.3125,0.46875,10.1875,43.03125,55.15625,52.78125,39.21875,42.71875,9.40625,11.9375,15.90625,37.78125,53.375,51.96875,27.03125,30.0625,22.875,14.65625,15.1875,30.78125,54.6875,1.0
-4.53125,-4.21875,-3.25,-3.25,1.03125,-1.03125,-6.09375,-10.84375,-9.3125,-6.34375,-2.625,0.6875,-2.875,-2.0,-1.5,0.4375,-1.84375,-4.375,-7.9375,-5.75,-1.65625,-3.125,-6.53125,-2.15625,-1.4375,-3.78125,-5.375,-6.1875,-7.25,-7.1875,-4.875,-3.9375,1.9375,-4.375,-8.3125,-6.125,-4.34375,-5.46875,-6.125,-7.28125,-2.25,-5.96875,-8.75,-8.03125,-7.0,-5.40625,-4.5,2.1875,2.65625,4.5625,4.25,6.34375,5.84375,0.46875,-5.4375,-8.5625,0.40625,5.65625,3.84375,2.5,-11.59375,-13.875,-5.875,8.0625,12.78125,17.125,11.53125,8.28125,-1.9375,-16.90625,-24.0,-9.125,2.90625,36.09375,21.71875,5.96875,-4.78125,-22.125,-25.0,-12.65625,1.0,22.78125,29.90625,14.75,0.5625,-19.84375,-30.84375,-15.9375,-7.125,2.71875,11.78125,8.5,-8.65625,-20.125,-22.125,-10.28125,34.59375,35.625,35.53125,40.59375,36.09375,25.875,18.53125,9.375,9.0625,7.40625,22.15625,44.28125,49.375,55.9375,48.15625,35.6875,27.3125,23.5,5.90625,9.28125,28.6875,61.5,56.15625,50.78125,40.65625,33.8125,19.3125,0.46875,10.1875,43.03125,55.15625,52.78125,39.21875,42.71875,9.40625,11.9375,15.90625,37.78125,53.375,51.96875,27.03125,30.0625,22.875,14.65625,15.1875,30.78125,54.6875,52.0625,1.0
-4.21875,-3.25,-3.25,1.03125,-1.03125,-6.09375,-10.84375,-9.3125,-6.34375,-2.625,0.6875,-2.875,-2.0,-1.5,0.4375,-1.84375,-4.375,-7.9375,-5.75,-1.65625,-3.125,-6.53125,-2.15625,-1.4375,-3.78125,-5.375,-6.1875,-7.25,-7.1875,-4.875,-3.9375,1.9375,-4.375,-8.3125,-6.125,-4.34375,-5.46875,-6.125,-7.28125,-2.25,-5.96875,-8.75,-8.03125,-7.0,-5.40625,-4.5,2.1875,0.15625,4.5625,4.25,6.34375,5.84375,0.46875,-5.4375,-8.5625,0.40625,5.65625,3.84375,2.5,-11.59375,-13.875,-5.875,8.0625,12.78125,17.125,11.53125,8.28125,-1.9375,-16.90625,-24.0,-9.125,2.90625,36.09375,21.71875,5.96875,-4.78125,-22.125,-25.0,-12.65625,1.0,22.78125,29.90625,14.75,0.5625,-19.84375,-30.84375,-15.9375,-7.125,2.71875,11.78125,8.5,-8.65625,-20.125,-22.125,-10.28125,3.5625,35.625,35.53125,40.59375,36.09375,25.875,18.53125,9.375,9.0625,7.40625,22.15625,44.28125,49.375,55.9375,48.15625,35.6875,27.3125,23.5,5.90625,9.28125,28.6875,61.5,56.15625,50.78125,40.65625,33.8125,19.3125,0.46875,10.1875,43.03125,55.15625,52.78125,39.21875,42.71875,9.40625,11.9375,15.90625,37.78125,53.375,51.96875,27.03125,30.0625,22.875,14.65625,15.1875,30.78125,54.6875,52.0625,42.59375,1.0
-3.25,-3.25,1.03125,-1.03125,-6.09375,-10.84375,-9.3125,-6.34375,-2.625,0.6875,-2.875,-2.0,-1.5,0.4375,-1.84375,-4.375,-7.9375,-5.75,-1.65625,-3.125,-6.53125,-2.15625,-1.4375,-3.78125,-5.375,-6.1875,-7.25,-7.1875,-4.875,-3.9375,1.9375,-4.375,-8.3125,-6.125,-4.34375,-5.46875,-6.125,-7.28125,-2.25,-5.96875,-8.75,-8.03125,-7.0,-5.40625,-4.5,2.1875,0.15625,-3.8125,4.25,6.34375,5.84375,0.46875,-5.4375,-8.5625,0.40625,5.65625,3.84375,2.5,-11.59375,-13.875,-5.875,8.0625,12.78125,17.125,11.53125,8.28125,-1.9375,-16.90625,-24.0,-9.125,2.90625,36.09375,21.71875,5.96875,-4.78125,-22.125,-25.0,-12.65625,1.0,22.78125,29.90625,14.75,0.5625,-19.84375,-30.84375,-15.9375,-7.125,2.71875,11.78125,8.5,-8.65625,-20.125,-22.125,-10.28125,3.5625,16.3125,35.53125,40.59375,36.09375,25.875,18.53125,9.375,9.0625,7.40625,22.15625,44.28125,49.375,55.9375,48.15625,35.6875,27.3125,23.5,5.90625,9.28125,28.6875,61.5,56.15625,50.78125,40.65625,33.8125,19.3125,0.46875,10.1875,43.03125,55.15625,52.78125,39.21875,42.71875,9.40625,11.9375,15.90625,37.78125,53.375,51.96875,27.03125,30.0625,22.875,14.65625,15.1875,30.78125,54.6875,52.0625,42.59375,49.28125,1.0
-3.25,1.03125,-1.03125,-6.09375,-10.84375,-9.3125,-6.34375,-2.625,0.6875,-2.875,-2.0,-1.5,0.4375,-1.84375,-4.375,-7.9375,-5.75,-1.65625,-3.125,-6.53125,-2.15625,-1.4375,-3.78125,-5.375,-6.1875,-7.25,-7.1875,-4.875,-3.9375,1.9375,-4.375,-8.3125,-6.125,-4.34375,-5.46875,-6.125,-7.28125,-2.25,-5.96875,-8.75,-8.03125,-7.0,-5.40625,-4.5,2.1875,0.15625,-3.8125,-4.65625,6.34375,5.84375,0.46875,-5.4375,-8.5625,0.40625,5.65625,3.84375,2.5,-11.59375,-13.875,-5.875,8.0625,12.78125,17.125,11.53125,8.28125,-1.9375,-16.90625,-24.0,-9.125,2.90625,36.09375,21.71875,5.96875,-4.78125,-22.125,-25.0,-12.65625,1.0,22.78125,29.90625,14.75,0.5625,-19.84375,-30.84375,-15.9375,-7.125,2.71875,11.78125,8.5,-8.65625,-20.125,-22.125,-10.28125,3.5625,16.3125,19.59375,40.59375,36.09375,25.875,18.53125,9.375,9.0625,7.40625,22.15625,44.28125,49.375,55.9375,48.15625,35.6875,27.3125,23.5,5.90625,9.28125,28.6875,61.5,56.15625,50.78125,40.65625,33.8125,19.3125,0.46875,10.1875,43.03125,55.15625,52.78125,39.21875,42.71875,9.40625,11.9375,15.90625,37.78125,53.375,51.96875,27.03125,30.0625,22.875,14.65625,15.1875,30.78125,54.6875,52.0625,42.59375,49.28125,30.90625,1.0
1.03125,-1.03125,-6.09375,-10.84375,-9.3125,-6.34375,-2.625,0.6875,-2.875,-2.0,-1.5,0.4375,-1.84375,-4.375,-7.9375,-5.75,-1.65625,-3.125,-6.53125,-2.15625,-1.4375,-3.78125,-5.375,-6.1875,-7.25,-7.1875,-4.875,-3.9375,1.9375,-4.375,-8.3125,-6.125,-4.34375,-5.46875,-6.125,-7.28125,-2.25,-5.96875,-8.75,-8.03125,-7.0,-5.40625,-4.5,2.1875,0.15625,-3.8125,-4.65625,-0.9375,5.84375,0.46875,-5.4375,-8.5625,0.40625,5.65625,3.84375,2.5,-11.59375,-13.875,-5.875,8.0625,12.78125,17.125,11.53125,8.28125,-1.9375,-16.90625,-24.0,-9.125,2.90625,36.09375,21.71875,5.96875,-4.78125,-22.125,-25.0,-12.65625,1.0,22.78125,29.90625,14.75,0.5625,-19.84375,-30.84375,-15.9375,-7.125,2.71875,11.78125,8.5,-8.65625,-20.125,-22.125,-10.28125,3.5625,16.3125,19.59375,11.375,36.09375,25.875,18.53125,9.375,9.0625,7.40625,22.15625,44.28125,49.375,55.9375,48.15625,35.6875,27.3125,23.5,5.90625,9.28125,28.6875,61.5,56.15625,50.78125,40.65625,33.8125,19.3125,0.46875,10.1875,43.03125,55.15625,52.78125,39.21875,42.71875,9.40625,11.9375,15.90625,37.78125,53.375,51.96875,27.03125,30.0625,22.875,14.65625,15.1875,30.78125,54.6875,52.0625,42.59375,49.28125,30.90625,8.46875,1.0
-1.03125,-6.09375,-10.84375,-9.3125,-6.34375,-2.625,0.6875,-2.875,-2.0,-1.5,0.4375,-1.84375,-4.375,-7.9375,-5.75,-1.65625,-3.125,-6.53125,-2.15625,-1.4375,-3.78125,-5.375,-6.1875,-7.25,-7.1875,-4.875,-3.9375,1.9375,-4.375,-8.3125,-6.125,-4.34375,-5.46875,-6.125,-7.28125,-2.25,-5.96875,-8.75,-8.03125,-7.0,-5.40625,-4.5,2.1875,0.15625,-3.8125,-4.65625,-0.9375,-4.375,0.46875,-5.4375,-8.5625,0.40625,5.65625,3.84375,2.5,-11.59375,-13.875,-5.875,8.0625,12.78125,17.125,11.53125,8.28125,-1.9375,-16.90625,-24.0,-9.125,2.90625,36.09375,21.71875,5.96875,-4.78125,-22.125,-25.0,-12.65625,1.0,22.78125,29.90625,14.75,0.5625,-19.84375,-30.84375,-15.9375,-7.125,2.71875,11.78125,8.5,-8.65625,-20.125,-22.125,-10.28125,3.5625,16.3125,19.59375,11.375,-2.375,25.875,18.53125,9.375,9.0625,7.40625,22.15625,44.28125,49.375,55.9375,48.15625,35.6875,27.3125,23.5,5.90625,9.28125,28.6875,61.5,56.15625,50.78125,40.65625,33.8125,19.3125,0.46875,10.1875,43.03125,55.15625,52.78125,39.21875,42.71875,9.40625,11.9375,15.90625,37.78125,53.375,51.96875,27.03125,30.0625,22.875,14.65625,15.1875,30.78125,54.6875,52.0625,42.59375,49.28125,30.90625,8.46875,19.625,1.0
-6.09375,-10.84375,-9.3125,-6.34375,-2.625,0.6875,-2.875,-2.0,-1.5,0.4375,-1.84375,-4.375,-7.9375,-5.75,-1.65625,-3.125,-6.53125,-2.15625,-1.4375,-3.78125,-5.375,-6.1875,-7.25,-7.1875,-4.875,-3.9375,1.9375,-4.375,-8.3125,-6.125,-4.34375,-5.46875,-6.125,-7.28125,-2.25,-5.96875,-8.75,-8.03125,-7.0,-5.40625,-4.5,2.1875,0.15625,-3.8125,-4.65625,-0.9375,-4.375,-3.375,-5.4375,-8.5625,0.40625,5.65625,3.84375,2.5,-11.59375,-13.875,-5.875,8.0625,12.78125,17.125,11.53125,8.28125,-1.9375,-16.90625,-24.0,-9.125,2.90625,36.09375,21.71875,5.96875,-4.78125,-22.125,-25.0,-12.65625,1.0,22.78125,29.90625,14.75,0.5625,-19.84375,-30.84375,-15.9375,-7.125,2.71875,11.78125,8.5,-8.65625,-20.125,-22.125,-10.28125,3.5625,16.3125,19.59375,11.375,-2.375,-19.40625,18.53125,9.375,9.0625,7.40625,22.15625,44.28125,49.375,55.9375,48.15625,35.6875,27.3125,23.5,5.90625,9.28125,28.6875,61.5,56.15625,50.78125,40.65625,33.8125,19.3125,0.46875,10.1875,43.03125,55.15625,52.78125,39.21875,42.71875,9.40625,11.9375,15.90625,37.78125,53.375,51.96875,27.03125,30.0625,22.875,14.65625,15.1875,30.78125,54.6875,52.0625,42.59375,49.28125,30.90625,8.46875,19.625,29.21875,1.0
-10.84375,-9.3125,-6.34375,-2.625,0.6875,-2.875,-2.0,-1.5,0.4375,-1.84375,-4.375,-7.9375,-5.75,-1.65625,-3.125,-6.53125,-2.15625,-1.4375,-3.78125,-5.375,-6.1875,-7.25,-7.1875,-4.875,-3.9375,1.9375,-4.375,-8.3125,-6.125,-4.34375,-5.46875,-6.125,-7.28125,-2.25,-5.96875,-8.75,-8.03125,-7.0,-5.40625,-4.5,2.1875,0.15625,-3.8125,-4.65625,-0.9375,-4.375,-3.375,-3.34375,-8.5625,0.40625,5.65625,3.84375,2.5,-11.59375,-13.875,-5.875,8.0625,12.78125,17.125,11.53125,8.28125,-1.9375,-16.90625,-24.0,-9.125,2.90625,36.09375,21.71875,5.96875,-4.78125,-22.125,-25.0,-12.65625,1.0,22.78125,29.90625,14.75,0.5625,-19.84375,-30.84375,-15.9375,-7.125,2.71875,11.78125,8.5,-8.65625,-20.125,-22.125,-10.28125,3.5625,16.3125,19.59375,11.375,-2.375,-19.40625,-23.84375,9.375,9.0625,7.40625,22.15625,44.28125,49.375,55.9375,48.15625,35.6875,27.3125,23.5,5.90625,9.28125,28.6875,61.5,56.15625,50.78125,40.65625,33.8125,19.3125,0.46875,10.1875,43.03125,55.15625,52.78125,39.21875,42.71875,9.40625,11.9375,15.90625,37.78125,53.375,51.96875,27.03125,30.0625,22.875,14.65625,15.1875,30.78125,54.6875,52.0625,42.59375,49.28125,30.90625,8.46875,19.625,29.21875,39.0,1.0
-9.3125,-6.34375,-2.625,0.6875,-2.875,-2.0,-1.5,0.4375,-1.84375,-4.375,-7.9375,-5.75,-1.65625,-3.125,-6.53125,-2.15625,-1.4375,-3.78125,-5.375,-6.1875,-7.25,-7.1875,-4.875,-3.9375,1.9375,-4.375,-8.3125,-6.125,-4.34375,-5.46875,-6.125,-7.28125,-2.25,-5.96875,-8.75,-8.03125,-7.0,-5.40625,-4.5,2.1875,0.15625,-3.8125,-4.65625,-0.9375,-4.375,-3.375,-3.34375,-4.9375,0.40625,5.65625,3.84375,2.5,-11.59375,-13.875,-5.875,8.0625,12.78125,17.125,11.53125,8.28125,-1.9375,-16.90625,-24.0,-9.125,2.90625,36.09375,21.71875,5.96875,-4.78125,-22.125,-25.0,-12.65625,1.0,22.78125,29.90625,14.75,0.5625,-19.84375,-30.84375,-15.9375,-7.125,2.71875,11.78125,8.5,-8.65625,-20.125,-22.125,-10.28125,3.5625,16.3125,19.59375,11.375,-2.375,-19.40625,-23.84375,-19.59375,9.0625,7.40625,22.15625,44.28125,49.375,55.9375,48.15625,35.6875,27.3125,23.5,5.90625,9.28125,28.6875,61.5,56.15625,50.78125,40.65625,33.8125,19.3125,0.46875,10.1875,43.03125,55.15625,52.78125,39.21875,42.71875,9.40625,11.9375,15.90625,37.78125,53.375,51.96875,27.03125,30.0625,22.875,14.65625,15.1875,30.78125,54.6875,52.0625,42.59375,49.28125,30.90625,8.46875,19.625,29.21875,39.0,45.34375,1.0
-6.34375,-2.625,0.6875,-2.875,-2.0,-1.5,0.4375,-1.84375,-4.375,-7.9375,-5.75,-1.65625,-3.125,-6.53125,-2.15625,-1.4375,-3.78125,-5.375,-6.1875,-7.25,-7.1875,-4.875,-3.9375,1.9375,-4.375,-8.3125,-6.125,-4.34375,-5.46875,-6.125,-7.28125,-2.25,-5.96875,-8.75,-8.03125,-7.0,-5.40625,-4.5,2.1875,0.15625,-3.8125,-4.65625,-0.9375,-4.375,-3.375,-3.34375,-4.9375,-1.28125,5.65625,3.84375,2.5,-11.59375,-13.875,-5.875,8.0625,12.78125,17.125,11.53125,8.28125,-1.9375,-16.90625,-24.0,-9.125,2.90625,36.09375,21.71875,5.96875,-4.78125,-22.125,-25.0,-12.65625,1.0,22.78125,29.90625,14.75,0.5625,-19.84375,-30.84375,-15.9375,-7.125,2.71875,11.78125,8.5,-8.65625,-20.125,-22.125,-10.28125,3.5625,16.3125,19.59375,11.375,-2.375,-19.40625,-23.84375,-19.59375,-17.875,7.40625,22.15625,44.28125,49.375,55.9375,48.15625,35.6875,27.3125,23.5,5.90625,9.28125,28.6875,61.5,56.15625,50.78125,40.65625,33.8125,19.3125,0.46875,10.1875,43.03125,55.15625,52.78125,39.21875,42.71875,9.40625,11.9375,15.90625,37.78125,53.375,51.96875,27.03125,30.0625,22.875,14.65625,15.1875,30.78125,54.6875,52.0625,42.59375,49.28125,30.90625,8.46875,19.625,29.21875,39.0,45.34375,33.28125,1.0
-2.625,0.6875,-2.875,-2.0,-1.5,0.4375,-1.84375,-4.375,-7.9375,-5.75,-1.65625,-3.125,-6.53125,-2.15625,-1.4375,-3.78125,-5.375,-6.1875,-7.25,-7.1875,-4.875,-3.9375,1.9375,-4.375,-8.3125,-6.125,-4.34375,-5.46875,-6.125,-7.28125,-2.25,-5.96875,-8.75,-8.03125,-7.0,-5.40625,-4.5,2.1875,0.15625,-3.8125,-4.65625,-0.9375,-4.375,-3.375,-3.34375,-4.9375,-1.28125,-7.0625,3.84375,2.5,-11.59375,-13.875,-5.875,8.0625,12.78125,17.125,11.53125,8.28125,-1.9375,-16.90625,-24.0,-9.125,2.90625,36.09375,21.71875,5.96875,-4.78125,-22.125,-25.0,-12.65625,1.0,22.78125,29.90625,14.75,0.5625,-19.84375,-30.84375,-15.9375,-7.125,2.71875,11.78125,8.5,-8.65625,-20.125,-22.125,-10.28125,3.5625,16.3125,19.59375,11.375,-2.375,-19.40625,-23.84375,-19.59375,-17.875,2.125,22.15625,44.28125,49.375,55.9375,48.15625,35.6875,27.3125,23.5,5.90625,9.28125,28.6875,61.5,56.15625,50.78125,40.65625,33.8125,19.3125,0.46875,10.1875,43.03125,55.15625,52.78125,39.21875,42.71875,9.40625,11.9375,15.90625,37.78125,53.375,51.96875,27.03125,30.0625,22.875,14.65625,15.1875,30.78125,54.6875,52.0625,42.59375,49.28125,30.90625,8.46875,19.625,29.21875,39.0,45.34375,33.28125,32.96875,1.0
0.6875,-2.875,-2.0,-1.5,0.4375,-1.84375,-4.375,-7.9375,-5.75,-1.65625,-3.125,-6.53125,-2.15625,-1.4375,-3.78125,-5.375,-6.1875,-7.25,-7.1875,-4.875,-3.9375,1.9375,-4.375,-8.3125,-6.125,-4.34375,-5.46875,-6.125,-7.28125,-2.25,-5.96875,-8.75,-8.03125,-7.0,-5.40625,-4.5,2.1875,0.15625,-3.8125,-4.65625,-0.9375,-4.375,-3.375,-3.34375,-4.9375,-1.28125,-7.0625,-8.09375,2.5,-11.59375,-13.875,-5.875,8.0625,12.78125,17.125,11.53125,8.28125,-1.9375,-16.90625,-24.0,-9.125,2.90625,36.09375,21.71875,5.96875,-4.78125,-22.125,-25.0,-12.65625,1.0,22.78125,29.90625,14.75,0.5625,-19.84375,-30.84375,-15.9375,-7.125,2.71875,11.78125,8.5,-8.65625,-20.125,-22.125,-10.28125,3.5625,16.3125,19.59375,11.375,-2.375,-19.40625,-23.84375,-19.59375,-17.875,2.125,12.78125,44.28125,49.375,55.9375,48.15625,35.6875,27.3125,23.5,5.90625,9.28125,28.6875,61.5,56.15625,50.78125,40.65625,33.8125,19.3125,0.46875,10.1875,43.03125,55.15625,52.78125,39.21875,42.71875,9.40625,11.9375,15.90625,37.78125,53.375,51.96875,27.03125,30.0625,22.875,14.65625,15.1875,30.78125,54.6875,52.0625,42.59375,49.28125,30.90625,8.46875,19.625,29.21875,39.0,45.34375,33.28125,32.96875,11.1875,1.0
-2.875,-2.0,-1.5,0.4375,-1.84375,-4.375,-7.9375,-5.75,-1.65625,-3.125,-6.53125,-2.15625,-1.4375,-3.78125,-5.375,-6.1875,-7.25,-7.1875,-4.875,-3.9375,1.9375,-4.375,-8.3125,-6.125,-4.34375,-5.46875,-6.125,-7.28125,-2.25,-5.96875,-8.75,-8.03125,-7.0,-5.40625,-4.5,2.1875,0.15625,-3.8125,-4.65625,-0.9375,-4.375,-3.375,-3.34375,-4.9375,-1.28125,-7.0625,-8.09375,-7.625,-11.59375,-13.875,-5.875,8.0625,12.78125,17.125,11.53125,8.28125,-1.9375,-16.90625,-24.0,-9.125,2.90625,36.09375,21.71875,5.96875,-4.78125,-22.125,-25.0,-12.65625,1.0,22.78125,29.90625,14.75,0.5625,-19.84375,-30.84375,-15.9375,-7.125,2.71875,11.78125,8.5,-8.65625,-20.125,-22.125,-10.28125,3.5625,16.3125,19.59375,11.375,-2.375,-19.40625,-23.84375,-19.59375,-17.875,2.125,12.78125,1.34375,49.375,55.9375,48.15625,35.6875,27.3125,23.5,5.90625,9.28125,28.6875,61.5,56.15625,50.78125,40.65625,33.8125,19.3125,0.46875,10.1875,43.03125,55.15625,52.78125,39.21875,42.71875,9.40625,11.9375,15.90625,37.78125,53.375,51.96875,27.03125,30.0625,22.875,14.65625,15.1875,30.78125,54.6875,52.0625,42.59375,49.28125,30.90625,8.46875,19.625,29.21875,39.0,45.34375,33.28125,32.96875,11.1875,17.46875,1.0
-2.0,-1.5,0.4375,-1.84375,-4.375,-7.9375,-5.75,-1.65625,-3.125,-6.53125,-2.15625,-1.4375,-3.78125,-5.375,-6.1875,-7.25,-7.1875,-4.875,-3.9375,1.9375,-4.375,-8.3125,-6.125,-4.34375,-5.46875,-6.125,-7.28125,-2.25,-5.96875,-8.75,-8.03125,-7.0,-5.40625,-4.5,2.1875,0.15625,-3.8125,-4.65625,-0.9375,-4.375,-3.375,-3.34375,-4.9375,-1.28125,-7.0625,-8.09375,-7.625,-6.09375,-13.875,-5.875,8.0625,12.78125,17.125,11.53125,8.28125,-1.9375,-16.90625,-24.0,-9.125,2.90625,36.09375,21.71875,5.96875,-4.78125,-22.125,-25.0,-12.65625,1.0,22.78125,29.90625,14.75,0.5625,-19.84375,-30.84375,-15.9375,-7.125,2.71875,11.78125,8.5,-8.65625,-20.125,-22.125,-10.28125,3.5625,16.3125,19.59375,11.375,-2.375,-19.40625,-23.84375,-19.59375,-17.875,2.125,12.78125,1.34375,-8.875,55.9375,48.15625,35.6875,27.3125,23.5,5.90625,9.28125,28.6875,61.5,56.15625,50.78125,40.65625,33.8125,19.3125,0.46875,10.1875,43.03125,55.15625,52.78125,39.21875,42.71875,9.40625,11.9375,15.90625,37.78125,53.375,51.96875,27.03125,30.0625,22.875,14.65625,15.1875,30.78125,54.6875,52.0625,42.59375,49.28125,30.90625,8.46875,19.625,29.21875,39.0,45.34375,33.28125,32.96875,11.1875,17.46875,20.09375,1.0
-1.5,0.4375,-1.84375,-4.375,-7.9375,-5.75,-1.65625,-3.125,-6.53125,-2.15625,-1.4375,-3.78125,-5.375,-6.1875,-7.25,-7.1875,-4.875,-3.9375,1.9375,-4.375,-8.3125,-6.125,-4.34375,-5.46875,-6.125,-7.28125,-2.25,-5.96875,-8.75,-8.03125,-7.0,-5.40625,-4.5,2.1875,0.15625,-3.8125,-4.65625,-0.9375,-4.375,-3.375,-3.34375,-4.9375,-1.28125,-7.0625,-8.09375,-7.625,-6.09375,-8.15625,-5.875,8.0625,12.78125,17.125,11.53125,8.28125,-1.9375,-16.90625,-24.0,-9.125,2.90625,36.09375,21.71875,5.96875,-4.78125,-22.125,-25.0,-12.65625,1.0,22.78125,29.90625,14.75,0.5625,-19.84375,-30.84375,-15.9375,-7.125,2.71875,11.78125,8.5,-8.65625,-20.125,-22.125,-10.28125,3.5625,16.3125,19.59375,11.375,-2.375,-19.40625,-23.84375,-19.59375,-17.875,2.125,12.78125,1.34375,-8.875,-17.6875,48.15625,35.6875,27.3125,23.5,5.90625,9.28125,28.6875,61.5,56.15625,50.78125,40.65625,33.8125,19.3125,0.46875,10.1875,43.03125,55.15625,52.78125,39.21875,42.71875,9.40625,11.9375,15.90625,37.78125,53.375,51.96875,27.03125,30.0625,22.875,14.65625,15.1875,30.78125,54.6875,52.0625,42.59375,49.28125,30.90625,8.46875,19.625,29.21875,39.0,45.34375,33.28125,32.96875,11.1875,17.46875,20.09375,33.15625,1.0
0.4375,-1.84375,-4.375,-7.9375,-5.75,-1.65625,-3.125,-6.53125,-2.15625,-1.4375,-3.78125,-5.375,-6.1875,-7.25,-7.1875,-4.875,-3.9375,1.9375,-4.375,-8.3125,-6.125,-4.34375,-5.46875,-6.125,-7.28125,-2.25,-5.96875,-8.75,-8.03125,-7.0,-5.40625,-4.5,2.1875,0.15625,-3.8125,-4.65625,-0.9375,-4.375,-3.375,-3.34375,-4.9375,-1.28125,-7.0625,-8.09375,-7.625,-6.09375,-8.15625,-5.25,8.0625,12.78125,17.125,11.53125,8.28125,-1.9375,-16.90625,-24.0,-9.125,2.90625,36.09375,21.71875,5.96875,-4.78125,-22.125,-25.0,-12.65625,1.0,22.78125,29.90625,14.75,0.5625,-19.84375,-30.84375,-15.9375,-7.125,2.71875,11.78125,8.5,-8.65625,-20.125,-22.125,-10.28125,3.5625,16.3125,19.59375,11.375,-2.375,-19.40625,-23.84375,-19.59375,-17.875,2.125,12.78125,1.34375,-8.875,-17.6875,-10.53125,35.6875,27.3125,23.5,5.90625,9.28125,28.6875,61.5,56.15625,50.78125,40.65625,33.8125,19.3125,0.46875,10.1875,43.03125,55.15625,52.78125,39.21875,42.71875,9.40625,11.9375,15.90625,37.78125,53.375,51.96875,27.03125,30.0625,22.875,14.65625,15.1875,30.78125,54.6875,52.0625,42.59375,49.28125,30.90625,8.46875,19.625,29.21875,39.0,45.34375,33.28125,32.96875,11.1875,17.46875,20.09375,33.15625,39.0625,1.0
-1.84375,-4.375,-7.9375,-5.75,-1.65625,-3.125,-6.53125,-2.15625,-1.4375,-3.78125,-5.375,-6.1875,-7.25,-7.1875,-4.875,-3.9375,1.9375,-4.375,-8.3125,-6.125,-4.34375,-5.46875,-6.125,-7.28125,-2.25,-5.96875,-8.75,-8.03125,-7.0,-5.40625,-4.5,2.1875,0.15625,-3.8125,-4.65625,-0.9375,-4.375,-3.375,-3.34375,-4.9375,-1.28125,-7.0625,-8.09375,-7.625,-6.09375,-8.15625,-5.25,-0.8125,12.78125,17.125,11.53125,8.28125,-1.9375,-16.90625,-24.0,-9.125,2.90625,36.09375,21.71875,5.96875,-4.78125,-22.125,-25.0,-12.65625,1.0,22.78125,29.90625,14.75,0.5625,-19.84375,-30.84375,-15.9375,-7.125,2.71875,11.78125,8.5,-8.65625,-20.125,-22.125,-10.28125,3.5625,16.3125,19.59375,11.375,-2.375,-19.40625,-23.84375,-19.59375,-17.875,2.125,12.78125,1.34375,-8.875,-17.6875,-10.53125,8.28125,27.3125,23.5,5.90625,9.28125,28.6875,61.5,56.15625,50.78125,40.65625,33.8125,19.3125,0.46875,10.1875,43.03125,55.15625,52.78125,39.21875,42.71875,9.40625,11.9375,15.90625,37.78125,53.375,51.96875,27.03125,30.0625,22.875,14.65625,15.1875,30.78125,54.6875,52.0625,42.59375,49.28125,30.90625,8.46875,19.625,29.21875,39.0,45.34375,33.28125,32.96875,11.1875,17.46875,20.09375,33.15625,39.0625,40.75,1.0
-4.375,-7.9375,-5.75,-1.65625,-3.125,-6.53125,-2.15625,-1.4375,-3.78125,-5.375,-6.1875,-7.25,-7.1875,-4.875,-3.9375,1.9375,-4.375,-8.3125,-6.125,-4.34375,-5.46875,-6.125,-7.28125,-2.25,-5.96875,-8.75,-8.03125,-7.0,-5.40625,-4.5,2.1875,0.15625,-3.8125,-4.65625,-0.9375,-4.375,-3.375,-3.34375,-4.9375,-1.28125,-7.0625,-8.09375,-7.625,-6.09375,-8.15625,-5.25,-0.8125,-3.53125,17.125,11.53125,8.28125,-1.9375,-16.90625,-24.0,-9.125,2.90625,36.09375,21.71875,5.96875,-4.78125,-22.125,-25.0,-12.65625,1.0,22.78125,29.90625,14.75,0.5625,-19.84375,-30.84375,-15.9375,-7.125,2.71875,11.78125,8.5,-8.65625,-20.125,-22.125,-10.28125,3.5625,16.3125,19.59375,11.375,-2.375,-19.40625,-23.84375,-19.59375,-17.875,2.125,12.78125,1.34375,-8.875,-17.6875,-10.53125,8.28125,6.625,23.5,5.90625,9.28125,28.6875,61.5,56.15625,50.78125,40.65625,33.8125,19.3125,0.46875,10.1875,43.03125,55.15625,52.78125,39.21875,42.71875,9.40625,11.9375,15.90625,37.78125,53.375,51.96875,27.03125,30.0625,22.875,14.65625,15.1875,30.78125,54.6875,52.0625,42.59375,49.28125,30.90625,8.46875,19.625,29.21875,39.0,45.34375,33.28125,32.96875,11.1875,17.46875,20.09375,33.15625,39.0625,40.75,35.40625,1.0
-7.9375,-5.75,-1.65625,-3.125,-6.53125,-2.15625,-1.4375,-3.78125,-5.375,-6.1875,-7.25,-7.1875,-4.875,-3.9375,1.9375,-4.375,-8.3125,-6.125,-4.34375,-5.46875,-6.125,-7.28125,-2.25,-5.96875,-8.75,-8.03125,-7.0,-5.40625,-4.5,2.1875,0.15625,-3.8125,-4.65625,-0.9375,-4.375,-3.375,-3.34375,-4.9375,-1.28125,-7.0625,-8.09375,-7.625,-6.09375,-8.15625,-5.25,-0.8125,-3.53125,-7.5,11.53125,8.28125,-1.9375,-16.90625,-24.0,-9.125,2.90625,36.09375,21.71875,5.96875,-4.78125,-22.125,-25.0,-12.65625,1.0,22.78125,29.90625,14.75,0.5625,-19.84375,-30.84375,-15.9375,-7.125,2.71875,11.78125,8.5,-8.65625,-20.125,-22.125,-10.28125,3.5625,16.3125,19.59375,11.375,-2.375,-19.40625,-23.84375,-19.59375,-17.875,2.125,12.78125,1.34375,-8.875,-17.6875,-10.53125,8.28125,6.625,4.75,5.90625,9.28125,28.6875,61.5,56.15625,50.78125,40.65625,33.8125,19.3125,0.46875,10.1875,43.03125,55.15625,52.78125,39.21875,42.71875,9.40625,11.9375,15.90625,37.78125,53.375,51.96875,27.03125,30.0625,22.875,14.65625,15.1875,30.78125,54.6875,52.0625,42.59375,49.28125,30.90625,8.46875,19.625,29.21875,39.0,45.34375,33.28125,32.96875,11.1875,17.46875,20.09375,33.15625,39.0625,40.75,35.40625,28.78125,1.0
-5.75,-1.65625,-3.125,-6.53125,-2.15625,-1.4375,-3.78125,-5.375,-6.1875,-7.25,-7.1875,-4.875,-3.9375,1.9375,-4.375,-8.3125,-6.125,-4.34375,-5.46875,-6.125,-7.28125,-2.25,-5.96875,-8.75,-8.03125,-7.0,-5.40625,-4.5,2.1875,0.15625,-3.8125,-4.65625,-0.9375,-4.375,-3.375,-3.34375,-4.9375,-1.28125,-7.0625,-8.09375,-7.625,-6.09375,-8.15625,-5.25,-0.8125,-3.53125,-7.5,-6.03125,8.28125,-1.9375,-16.90625,-24.0,-9.125,2.90625,36.09375,21.71875,5.96875,-4.78125,-22.125,-25.0,-12.65625,1.0,22.78125,29.90625,14.75,0.5625,-19.84375,-30.84375,-15.9375,-7.125,2.71875,11.78125,8.5,-8.65625,-20.125,-22.125,-10.28125,3.5625,16.3125,19.59375,11.375,-2.375,-19.40625,-23.84375,-19.59375,-17.875,2.125,12.78125,1.34375,-8.875,-17.6875,-10.53125,8.28125,6.625,4.75,-0.03125,9.28125,28.6875,61.5,56.15625,50.78125,40.65625,33.8125,19.3125,0.46875,10.1875,43.03125,55.15625,52.78125,39.21875,42.71875,9.40625,11.9375,15.90625,37.78125,53.375,51.96875,27.03125,30.0625,22.875,14.65625,15.1875,30.78125,54.6875,52.0625,42.59375,49.28125,30.90625,8.46875,19.625,29.21875,39.0,45.34375,33.28125,32.96875,11.1875,17.46875,20.09375,33.15625,39.0625,40.75,35.40625,28.78125,28.1875,1.0
-1.65625,-3.125,-6.53125,-2.15625,-1.4375,-3.78125,-5.375,-6.1875,-7.25,-7.1875,-4.875,-3.9375,1.9375,-4.375,-8.3125,-6.125,-4.34375,-5.46875,-6.125,-7.28125,-2.25,-5.96875,-8.75,-8.03125,-7.0,-5.40625,-4.5,2.1875,0.15625,-3.8125,-4.65625,-0.9375,-4.375,-3.375,-3.34375,-4.9375,-1.28125,-7.0625,-8.09375,-7.625,-6.09375,-8.15625,-5.25,-0.8125,-3.53125,-7.5,-6.03125,0.0,-1.9375,-16.90625,-24.0,-9.125,2.90625,36.09375,21.71875,5.96875,-4.78125,-22.125,-25.0,-12.65625,1.0,22.78125,29.90625,14.75,0.5625,-19.84375,-30.84375,-15.9375,-7.125,2.71875,11.78125,8.5,-8.65625,-20.125,-22.125,-10.28125,3.5625,16.3125,19.59375,11.375,-2.375,-19.40625,-23.84375,-19.59375,-17.875,2.125,12.78125,1.34375,-8.875,-17.6875,-10.53125,8.28125,6.625,4.75,-0.03125,2.9375,28.6875,61.5,56.15625,50.78125,40.65625,33.8125,19.3125,0.46875,10.1875,43.03125,55.15625,52.78125,39.21875,42.71875,9.40625,11.9375,15.90625,37.78125,53.375,51.96875,27.03125,30.0625,22.875,14.65625,15.1875,30.78125,54.6875,52.0625,42.59375,49.28125,30.90625,8.46875,19.625,29.21875,39.0,45.34375,33.28125,32.96875,11.1875,17.46875,20.09375,33.15625,39.0625,40.75,35.40625,28.78125,28.1875,38.625,1.0
-3.125,-6.53125,-2.15625,-1.4375,-3.78125,-5.375,-6.1875,-7.25,-7.1875,-4.875,-3.9375,1.9375,-4.375,-8.3125,-6.125,-4.34375,-5.46875,-6.125,-7.28125,-2.25,-5.96875,-8.75,-8.03125,-7.0,-5.40625,-4.5,2.1875,0.15625,-3.8125,-4.65625,-0.9375,-4.375,-3.375,-3.34375,-4.9375,-1.28125,-7.0625,-8.09375,-7.625,-6.09375,-8.15625,-5.25,-0.8125,-3.53125,-7.5,-6.03125,0.0,8.375,-16.90625,-24.0,-9.125,2.90625,36.09375,21.71875,5.96875,-4.78125,-22.125,-25.0,-12.65625,1.0,22.78125,29.90625,14.75,0.5625,-19.84375,-30.84375,-15.9375,-7.125,2.71875,11.78125,8.5,-8.65625,-20.125,-22.125,-10.28125,3.5625,16.3125,19.59375,11.375,-2.375,-19.40625,-23.84375,-19.59375,-17.875,2.125,12.78125,1.34375,-8.875,-17.6875,-10.53125,8.28125,6.625,4.75,-0.03125,2.9375,0.3125,61.5,56.15625,50.78125,40.65625,33.8125,19.3125,0.46875,10.1875,43.03125,55.15625,52.78125,39.21875,42.71875,9.40625,11.9375,15.90625,37.78125,53.375,51.96875,27.03125,30.0625,22.875,14.65625,15.1875,30.78125,54.6875,52.0625,42.59375,49.28125,30.90625,8.46875,19.625,29.21875,39.0,45.34375,33.28125,32.96875,11.1875,17.46875,20.09375,33.15625,39.0625,40.75,35.40625,28.78125,28.1875,38.625,46.34375,1.0
-6.53125,-2.15625,-1.4375,-3.78125,-5.375,-6.1875,-7.25,-7.1875,-4.875,-3.9375,1.9375,-4.375,-8.3125,-6.125,-4.34375,-5.46875,-6.125,-7.28125,-2.25,-5.96875,-8.75,-8.03125,-7.0,-5.40625,-4.5,2.1875,0.15625,-3.8125,-4.65625,-0.9375,-4.375,-3.375,-3.34375,-4.9375,-1.28125,-7.0625,-8.09375,-7.625,-6.09375,-8.15625,-5.25,-0.8125,-3.53125,-7.5,-6.03125,0.0,8.375,4.6875,-24.0,-9.125,2.90625,36.09375,21.71875,5.96875,-4.78125,-22.125,-25.0,-12.65625,1.0,22.78125,29.90625,14.75,0.5625,-19.84375,-30.84375,-15.9375,-7.125,2.71875,11.78125,8.5,-8.65625,-20.125,-22.125,-10.28125,3.5625,16.3125,19.59375,11.375,-2.375,-19.40625,-23.84375,-19.59375,-17.875,2.125,12.78125,1.34375,-8.875,-17.6875,-10.53125,8.28125,6.625,4.75,-0.03125,2.9375,0.3125,-9.0625,56.15625,50.78125,40.65625,33.8125,19.3125,0.46875,10.1875,43.03125,55.15625,52.78125,39.21875,42.71875,9.40625,11.9375,15.90625,37.78125,53.375,51.96875,27.03125,30.0625,22.875,14.65625,15.1875,30.78125,54.6875,52.0625,42.59375,49.28125,30.90625,8.46875,19.625,29.21875,39.0,45.34375,33.28125,32.96875,11.1875,17.46875,20.09375,33.15625,39.0625,40.75,35.40625,28.78125,28.1875,38.625,46.34375,37.1875,1.0
-2.15625,-1.4375,-3.78125,-5.375,-6.1875,-7.25,-7.1875,-4.875,-3.9375,1.9375,-4.375,-8.3125,-6.125,-4.34375,-5.46875,-6.125,-7.28125,-2.25,-5.96875,-8.75,-8.03125,-7.0,-5.40625,-4.5,2.1875,0.15625,-3.8125,-4.65625,-0.9375,-4.375,-3.375,-3.34375,-4.9375,-1.28125,-7.0625,-8.09375,-7.625,-6.09375,-8.15625,-5.25,-0.8125,-3.53125,-7.5,-6.03125,0.0,8.375,4.6875,4.46875,-9.125,2.90625,36.09375,21.71875,5.96875,-4.78125,-22.125,-25.0,-12.65625,1.0,22.78125,29.90625,14.75,0.5625,-19.84375,-30.84375,-15.9375,-7.125,2.71875,11.78125,8.5,-8.65625,-20.125,-22.125,-10.28125,3.5625,16.3125,19.59375,11.375,-2.375,-19.40625,-23.84375,-19.59375,-17.875,2.125,12.78125,1.34375,-8.875,-17.6875,-10.53125,8.28125,6.625,4.75,-0.03125,2.9375,0.3125,-9.0625,-6.0,50.78125,40.65625,33.8125,19.3125,0.46875,10.1875,43.03125,55.15625,52.78125,39.21875,42.71875,9.40625,11.9375,15.90625,37.78125,53.375,51.96875,27.03125,30.0625,22.875,14.65625,15.1875,30.78125,54.6875,52.0625,42.59375,49.28125,30.90625,8.46875,19.625,29.21875,39.0,45.34375,33.28125,32.96875,11.1875,17.46875,20.09375,33.15625,39.0625,40.75,35.40625,28.78125,28.1875,38.625,46.34375,37.1875,26.75,1.0
-1.4375,-3.78125,-5.375,-6.1875,-7.25,-7.1875,-4.875,-3.9375,1.9375,-4.375,-8.3125,-6.125,-4.34375,-5.46875,-6.125,-7.28125,-2.25,-5.96875,-8.75,-8.03125,-7.0,-5.40625,-4.5,2.1875,0.15625,-3.8125,-4.65625,-0.9375,-4.375,-3.375,-3.34375,-4.9375,-1.28125,-7.0625,-8.09375,-7.625,-6.09375,-8.15625,-5.25,-0.8125,-3.53125,-7.5,-6.03125,0.0,8.375,4.6875,4.46875,6.40625,2.90625,36.09375,21.71875,5.96875,-4.78125,-22.125,-25.0,-12.65625,1.0,22.78125,29.90625,14.75,0.5625,-19.84375,-30.84375,-15.9375,-7.125,2.71875,11.78125,8.5,-8.65625,-20.125,-22.125,-10.28125,3.5625,16.3125,19.59375,11.375,-2.375,-19.40625,-23.84375,-19.59375,-17.875,2.125,12.78125,1.34375,-8.875,-17.6875,-10.53125,8.28125,6.625,4.75,-0.03125,2.9375,0.3125,-9.0625,-6.0,3.6875,40.65625,33.8125,19.3125,0.46875,10.1875,43.03125,55.15625,52.78125,39.21875,42.71875,9.40625,11.9375,15.90625,37.78125,53.375,51.96875,27.03125,30.0625,22.875,14.65625,15.1875,30.78125,54.6875,52.0625,42.59375,49.28125,30.90625,8.46875,19.625,29.21875,39.0,45.34375,33.28125,32.96875,11.1875,17.46875,20.09375,33.15625,39.0625,40.75,35.40625,28.78125,28.1875,38.625,46.34375,37.1875,26.75,15.0625,1.0
-3.78125,-5.375,-6.1875,-7.25,-7.1875,-4.875,-3.9375,1.9375,-4.375,-8.3125,-6.125,-4.34375,-5.46875,-6.125,-7.28125,-2.25,-5.96875,-8.75,-8.03125,-7.0,-5.40625,-4.5,2.1875,0.15625,-3.8125,-4.65625,-0.9375,-4.375,-3.375,-3.34375,-4.9375,-1.28125,-7.0625,-8.09375,-7.625,-6.09375,-8.15625,-5.25,-0.8125,-3.53125,-7.5,-6.03125,0.0,8.375,4.6875,4.46875,6.40625,-0.4375,36.09375,21.71875,5.96875,-4.78125,-22.125,-25.0,-12.65625,1.0,22.78125,29.90625,14.75,0.5625,-19.84375,-30.84375,-15.9375,-7.125,2.71875,11.78125,8.5,-8.65625,-20.125,-22.125,-10.28125,3.5625,16.3125,19.59375,11.375,-2.375,-19.40625,-23.84375,-19.59375,-17.875,2.125,12.78125,1.34375,-8.875,-17.6875,-10.53125,8.28125,6.625,4.75,-0.03125,2.9375,0.3125,-9.0625,-6.0,3.6875,-7.59375,33.8125,19.3125,0.46875,10.1875,43.03125,55.15625,52.78125,39.21875,42.71875,9.40625,11.9375,15.90625,37.78125,53.375,51.96875,27.03125,30.0625,22.875,14.65625,15.1875,30.78125,54.6875,52.0625,42.59375,49.28125,30.90625,8.46875,19.625,29.21875,39.0,45.34375,33.28125,32.96875,11.1875,17.46875,20.09375,33.15625,39.0625,40.75,35.40625,28.78125,28.1875,38.625,46.34375,37.1875,26.75,15.0625,15.09375,1.0
-5.375,-6.1875,-7.25,-7.1875,-4.875,-3.9375,1.9375,-4.375,-8.3125,-6.125,-4.34375,-5.46875,-6.125,-7.28125,-2.25,-5.96875,-8.75,-8.03125,-7.0,-5.40625,-4.5,2.1875,0.15625,-3.8125,-4.65625,-0.9375,-4.375,-3.375,-3.34375,-4.9375,-1.28125,-7.0625,-8.09375,-7.625,-6.09375,-8.15625,-5.25,-0.8125,-3.53125,-7.5,-6.03125,0.0,8.375,4.6875,4.46875,6.40625,-0.4375,3.0,21.71875,5.96875,-4.78125,-22.125,-25.0,-12.65625,1.0,22.78125,29.90625,14.75,0.5625,-19.84375,-30.84375,-15.9375,-7.125,2.71875,11.78125,8.5,-8.65625,-20.125,-22.125,-10.28125,3.5625,16.3125,19.59375,11.375,-2.375,-19.40625,-23.84375,-19.59375,-17.875,2.125,12.78125,1.34375,-8.875,-17.6875,-10.53125,8.28125,6.625,4.75,-0.03125,2.9375,0.3125,-9.0625,-6.0,3.6875,-7.59375,-5.9375,19.3125,0.46875,10.1875,43.03125,55.15625,52.78125,39.21875,42.71875,9.40625,11.9375,15.90625,37.78125,53.375,51.96875,27.03125,30.0625,22.875,14.65625,15.1875,30.78125,54.6875,52.0625,42.59375,49.28125,30.90625,8.46875,19.625,29.21875,39.0,45.34375,33.28125,32.96875,11.1875,17.46875,20.09375,33.15625,39.0625,40.75,35.40625,28.78125,28.1875,38.625,46.34375,37.1875,26.75,15.0625,15.09375,40.9375,1.0
-6.1875,-7.25,-7.1875,-4.875,-3.9375,1.9375,-4.375,-8.3125,-6.125,-4.34375,-5.46875,-6.125,-7.28125,-2.25,-5.96875,-8.75,-8.03125,-7.0,-5.40625,-4.5,2.1875,0.15625,-3.8125,-4.65625,-0.9375,-4.375,-3.375,-3.34375,-4.9375,-1.28125,-7.0625,-8.09375,-7.625,-6.09375,-8.15625,-5.25,-0.8125,-3.53125,-7.5,-6.03125,0.0,8.375,4.6875,4.46875,6.40625,-0.4375,3.0,-4.28125,5.96875,-4.78125,-22.125,-25.0,-12.65625,1.0,22.78125,29.90625,14.75,0.5625,-19.84375,-30.84375,-15.9375,-7.125,2.71875,11.78125,8.5,-8.65625,-20.125,-22.125,-10.28125,3.5625,16.3125,19.59375,11.375,-2.375,-19.40625,-23.84375,-19.59375,-17.875,2.125,12.78125,1.34375,-8.875,-17.6875,-10.53125,8.28125,6.625,4.75,-0.03125,2.9375,0.3125,-9.0625,-6.0,3.6875,-7.59375,-5.9375,10.875,0.46875,10.1875,43.03125,55.15625,52.78125,39.21875,42.71875,9.40625,11.9375,15.90625,37.78125,53.375,51.96875,27.03125,30.0625,22.875,14.65625,15.1875,30.78125,54.6875,52.0625,42.59375,49.28125,30.90625,8.46875,19.625,29.21875,39.0,45.34375,33.28125,32.96875,11.1875,17.46875,20.09375,33.15625,39.0625,40.75,35.40625,28.78125,28.1875,38.625,46.34375,37.1875,26.75,15.0625,15.09375,40.9375,30.03125,1.0
-7.25,-7.1875,-4.875,-3.9375,1.9375,-4.375,-8.3125,-6.125,-4.34375,-5.46875,-6.125,-7.28125,-2.25,-5.96875,-8.75,-8.03125,-7.0,-5.40625,-4.5,2.1875,0.15625,-3.8125,-4.65625,-0.9375,-4.375,-3.375,-3.34375,-4.9375,-1.28125,-7.0625,-8.09375,-7.625,-6.09375,-8.15625,-5.25,-0.8125,-3.53125,-7.5,-6.03125,0.0,8.375,4.6875,4.46875,6.40625,-0.4375,3.0,-4.28125,-9.75,-4.78125,-22.125,-25.0,-12.65625,1.0,22.78125,29.90625,14.75,0.5625,-19.84375,-30.84375,-15.9375,-7.125,2.71875,11.78125,8.5,-8.65625,-20.125,-22.125,-10.28125,3.5625,16.3125,19.59375,11.375,-2.375,-19.40625,-23.84375,-19.59375,-17.875,2.125,12.78125,1.34375,-8.875,-17.6875,-10.53125,8.28125,6.625,4.75,-0.03125,2.9375,0.3125,-9.0625,-6.0,3.6875,-7.59375,-5.9375,10.875,2.40625,10.1875,43.03125,55.15625,52.78125,39.21875,42.71875,9.40625,11.9375,15.90625,37.78125,53.375,51.96875,27.03125,30.0625,22.875,14.65625,15.1875,30.78125,54.6875,52.0625,42.59375,49.28125,30.90625,8.46875,19.625,29.21875,39.0,45.34375,33.28125,32.96875,11.1875,17.46875,20.09375,33.15625,39.0625,40.75,35.40625,28.78125,28.1875,38.625,46.34375,37.1875,26.75,15.0625,15.09375,40.9375,30.03125,26.0,1.0
-7.1875,-4.875,-3.9375,1.9375,-4.375,-8.3125,-6.125,-4.34375,-5.46875,-6.125,-7.28125,-2.25,-5.96875,-8.75,-8.03125,-7.0,-5.40625,-4.5,2.1875,0.15625,-3.8125,-4.65625,-0.9375,-4.375,-3.375,-3.34375,-4.9375,-1.28125,-7.0625,-8.09375,-7.625,-6.09375,-8.15625,-5.25,-0.8125,-3.53125,-7.5,-6.03125,0.0,8.375,4.6875,4.46875,6.40625,-0.4375,3.0,-4.28125,-9.75,-7.71875,-22.125,-25.0,-12.65625,1.0,22.78125,29.90625,14.75,0.5625,-19.84375,-30.84375,-15.9375,-7.125,2.71875,11.78125,8.5,-8.65625,-20.125,-22.125,-10.28125,3.5625,16.3125,19.59375,11.375,-2.375,-19.40625,-23.84375,-19.59375,-17.875,2.125,12.78125,1.34375,-8.875,-17.6875,-10.53125,8.28125,6.625,4.75,-0.03125,2.9375,0.3125,-9.0625,-6.0,3.6875,-7.59375,-5.9375,10.875,2.40625,-0.90625,43.03125,55.15625,52.78125,39.21875,42.71875,9.40625,11.9375,15.90625,37.78125,53.375,51.96875,27.03125,30.0625,22.875,14.65625,15.1875,30.78125,54.6875,52.0625,42.59375,49.28125,30.90625,8.46875,19.625,29.21875,39.0,45.34375,33.28125,32.96875,11.1875,17.46875,20.09375,33.15625,39.0625,40.75,35.40625,28.78125,28.1875,38.625,46.34375,37.1875,26.75,15.0625,15.09375,40.9375,30.03125,26.0,24.78125,1.0
-4.875,-3.9375,1.9375,-4.375,-8.3125,-6.125,-4.34375,-5.46875,-6.125,-7.28125,-2.25,-5.96875,-8.75,-8.03125,-7.0,-5.40625,-4.5,2.1875,0.15625,-3.8125,-4.65625,-0.9375,-4.375,-3.375,-3.34375,-4.9375,-1.28125,-7.0625,-8.09375,-7.625,-6.09375,-8.15625,-5.25,-0.8125,-3.53125,-7.5,-6.03125,0.0,8.375,4.6875,4.46875,6.40625,-0.4375,3.0,-4.28125,-9.75,-7.71875,4.40625,-25.0,-12.65625,1.0,22.78125,29.90625,14.75,0.5625,-19.84375,-30.84375,-15.9375,-7.125,2.71875,11.78125,8.5,-8.65625,-20.125,-22.125,-10.28125,3.5625,16.3125,19.59375,11.375,-2.375,-19.40625,-23.84375,-19.59375,-17.875,2.125,12.78125,1.34375,-8.875,-17.6875,-10.53125,8.28125,6.625,4.75,-0.03125,2.9375,0.3125,-9.0625,-6.0,3.6875,-7.59375,-5.9375,10.875,2.40625,-0.90625,-6.28125,55.15625,52.78125,39.21875,42.71875,9.40625,11.9375,15.90625,37.78125,53.375,51.96875,27.03125,30.0625,22.875,14.65625,15.1875,30.78125,54.6875,52.0625,42.59375,49.28125,30.90625,8.46875,19.625,29.21875,39.0,45.34375,33.28125,32.96875,11.1875,17.46875,20.09375,33.15625,39.0625,40.75,35.40625,28.78125,28.1875,38.625,46.34375,37.1875,26.75,15.0625,15.09375,40.9375,30.03125,26.0,24.78125,37.4375,1.0
-3.9375,1.9375,-4.375,-8.3125,-6.125,-4.34375,-5.46875,-6.125,-7.28125,-2.25,-5.96875,-8.75,-8.03125,-7.0,-5.40625,-4.5,2.1875,0.15625,-3.8125,-4.65625,-0.9375,-4.375,-3.375,-3.34375,-4.9375,-1.28125,-7.0625,-8.09375,-7.625,-6.09375,-8.15625,-5.25,-0.8125,-3.53125,-7.5,-6.03125,0.0,8.375,4.6875,4.46875,6.40625,-0.4375,3.0,-4.28125,-9.75,-7.71875,4.40625,7.5,-12.65625,1.0,22.78125,29.90625,14.75,0.5625,-19.84375,-30.84375,-15.9375,-7.125,2.71875,11.78125,8.5,-8.65625,-20.125,-22.125,-10.28125,3.5625,16.3125,19.59375,11.375,-2.375,-19.40625,-23.84375,-19.59375,-17.875,2.125,12.78125,1.34375,-8.875,-17.6875,-10.53125,8.28125,6.625,4.75,-0.03125,2.9375,0.3125,-9.0625,-6.0,3.6875,-7.59375,-5.9375,10.875,2.40625,-0.90625,-6.28125,-15.4375,52.78125,39.21875,42.71875,9.40625,11.9375,15.90625,37.78125,53.375,51.96875,27.03125,30.0625,22.875,14.65625,15.1875,30.78125,54.6875,52.0625,42.59375,49.28125,30.90625,8.46875,19.625,29.21875,39.0,45.34375,33.28125,32.96875,11.1875,17.46875,20.09375,33.15625,39.0625,40.75,35.40625,28.78125,28.1875,38.625,46.34375,37.1875,26.75,15.0625,15.09375,40.9375,30.03125,26.0,24.78125,37.4375,48.90625,1.0
1.9375,-4.375,-8.3125,-6.125,-4.34375,-5.46875,-6.125,-7.28125,-2.25,-5.96875,-8.75,-8.03125,-7.0,-5.40625,-4.5,2.1875,0.15625,-3.8125,-4.65625,-0.9375,-4.375,-3.375,-3.34375,-4.9375,-1.28125,-7.0625,-8.09375,-7.625,-6.09375,-8.15625,-5.25,-0.8125,-3.53125,-7.5,-6.03125,0.0,8.375,4.6875,4.46875,6.40625,-0.4375,3.0,-4.28125,-9.75,-7.71875,4.40625,7.5,-0.90625,1.0,22.78125,29.90625,14.75,0.5625,-19.84375,-30.84375,-15.9375,-7.125,2.71875,11.78125,8.5,-8.65625,-20.125,-22.125,-10.28125,3.5625,16.3125,19.59375,11.375,-2.375,-19.40625,-23.84375,-19.59375,-17.875,2.125,12.78125,1.34375,-8.875,-17.6875,-10.53125,8.28125,6.625,4.75,-0.03125,2.9375,0.3125,-9.0625,-6.0,3.6875,-7.59375,-5.9375,10.875,2.40625,-0.90625,-6.28125,-15.4375,3.46875,39.21875,42.71875,9.40625,11.9375,15.90625,37.78125,53.375,51.96875,27.03125,30.0625,22.875,14.65625,15.1875,30.78125,54.6875,52.0625,42.59375,49.28125,30.90625,8.46875,19.625,29.21875,39.0,45.34375,33.28125,32.96875,11.1875,17.46875,20.09375,33.15625,39.0625,40.75,35.40625,28.78125,28.1875,38.625,46.34375,37.1875,26.75,15.0625,15.09375,40.9375,30.03125,26.0,24.78125,37.4375,48.90625,55.75,1.0
-4.375,-8.3125,-6.125,-4.34375,-5.46875,-6.125,-7.28125,-2.25,-5.96875,-8.75,-8.03125,-7.0,-5.40625,-4.5,2.1875,0.15625,-3.8125,-4.65625,-0.9375,-4.375,-3.375,-3.34375,-4.9375,-1.28125,-7.0625,-8.09375,-7.625,-6.09375,-8.15625,-5.25,-0.8125,-3.53125,-7.5,-6.03125,0.0,8.375,4.6875,4.46875,6.40625,-0.4375,3.0,-4.28125,-9.75,-7.71875,4.40625,7.5,-0.90625,3.8125,22.78125,29.90625,14.75,0.5625,-19.84375,-30.84375,-15.9375,-7.125,2.71875,11.78125,8.5,-8.65625,-20.125,-22.125,-10.28125,3.5625,16.3125,19.59375,11.375,-2.375,-19.40625,-23.84375,-19.59375,-17.875,2.125,12.78125,1.34375,-8.875,-17.6875,-10.53125,8.28125,6.625,4.75,-0.03125,2.9375,0.3125,-9.0625,-6.0,3.6875,-7.59375,-5.9375,10.875,2.40625,-0.90625,-6.28125,-15.4375,3.46875,9.34375,42.71875,9.40625,11.9375,15.90625,37.78125,53.375,51.96875,27.03125,30.0625,22.875,14.65625,15.1875,30.78125,54.6875,52.0625,42.59375,49.28125,30.90625,8.46875,19.625,29.21875,39.0,45.34375,33.28125,32.96875,11.1875,17.46875,20.09375,33.15625,39.0625,40.75,35.40625,28.78125,28.1875,38.625,46.34375,37.1875,26.75,15.0625,15.09375,40.9375,30.03125,26.0,24.78125,37.4375,48.90625,55.75,37.875,1.0
-8.3125,-6.125,-4.34375,-5.46875,-6.125,-7.28125,-2.25,-5.96875,-8.75,-8.03125,-7.0,-5.40625,-4.5,2.1875,0.15625,-3.8125,-4.65625,-0.9375,-4.375,-3.375,-3.34375,-4.9375,-1.28125,-7.0625,-8.09375,-7.625,-6.09375,-8.15625,-5.25,-0.8125,-3.53125,-7.5,-6.03125,0.0,8.375,4.6875,4.46875,6.40625,-0.4375,3.0,-4.28125,-9.75,-7.71875,4.40625,7.5,-0.90625,3.8125,2.6875,29.90625,14.75,0.5625,-19.84375,-30.84375,-15.9375,-7.125,2.71875,11.78125,8.5,-8.65625,-20.125,-22.125,-10.28125,3.5625,16.3125,19.59375,11.375,-2.375,-19.40625,-23.84375,-19.59375,-17.875,2.125,12.78125,1.34375,-8.875,-17.6875,-10.53125,8.28125,6.625,4.75,-0.03125,2.9375,0.3125,-9.0625,-6.0,3.6875,-7.59375,-5.9375,10.875,2.40625,-0.90625,-6.28125,-15.4375,3.46875,9.34375,10.9375,9.40625,11.9375,15.90625,37.78125,53.375,51.96875,27.03125,30.0625,22.875,14.65625,15.1875,30.78125,54.6875,52.0625,42.59375,49.28125,30.90625,8.46875,19.625,29.21875,39.0,45.34375,33.28125,32.96875,11.1875,17.46875,20.09375,33.15625,39.0625,40.75,35.40625,28.78125,28.1875,38.625,46.34375,37.1875,26.75,15.0625,15.09375,40.9375,30.03125,26.0,24.78125,37.4375,48.90625,55.75,37.875,37.4375,1.0
-6.125,-4.34375,-5.46875,-6.125,-7.28125,-2.25,-5.96875,-8.75,-8.03125,-7.0,-5.40625,-4.5,2.1875,0.15625,-3.8125,-4.65625,-0.9375,-4.375,-3.375,-3.34375,-4.9375,-1.28125,-7.0625,-8.09375,-7.625,-6.09375,-8.15625,-5.25,-0.8125,-3.53125,-7.5,-6.03125,0.0,8.375,4.6875,4.46875,6.40625,-0.4375,3.0,-4.28125,-9.75,-7.71875,4.40625,7.5,-0.90625,3.8125,2.6875,-12.375,14.75,0.5625,-19.84375,-30.84375,-15.9375,-7.125,2.71875,11.78125,8.5,-8.65625,-20.125,-22.125,-10.28125,3.5625,16.3125,19.59375,11.375,-2.375,-19.40625,-23.84375,-19.59375,-17.875,2.125,12.78125,1.34375,-8.875,-17.6875,-10.53125,8.28125,6.625,4.75,-0.03125,2.9375,0.3125,-9.0625,-6.0,3.6875,-7.59375,-5.9375,10.875,2.40625,-0.90625,-6.28125,-15.4375,3.46875,9.34375,10.9375,17.46875,11.9375,15.90625,37.78125,53.375,51.96875,27.03125,30.0625,22.875,14.65625,15.1875,30.78125,54.6875,52.0625,42.59375,49.28125,30.90625,8.46875,19.625,29.21875,39.0,45.34375,33.28125,32.96875,11.1875,17.46875,20.09375,33.15625,39.0625,40.75,35.40625,28.78125,28.1875,38.625,46.34375,37.1875,26.75,15.0625,15.09375,40.9375,30.03125,26.0,24.78125,37.4375,48.90625,55.75,37.875,37.4375,20.03125,1.0
-4.34375,-5.46875,-6.125,-7.28125,-2.25,-5.96875,-8.75,-8.03125,-7.0,-5.40625,-4.5,2.1875,0.15625,-3.8125,-4.65625,-0.9375,-4.375,-3.375,-3.34375,-4.9375,-1.28125,-7.0625,-8.09375,-7.625,-6.09375,-8.15625,-5.25,-0.8125,-3.53125,-7.5,-6.03125,0.0,8.375,4.6875,4.46875,6.40625,-0.4375,3.0,-4.28125,-9.75,-7.71875,4.40625,7.5,-0.90625,3.8125,2.6875,-12.375,-13.625,0.5625,-19.84375,-30.84375,-15.9375,-7.125,2.71875,11.78125,8.5,-8.65625,-20.125,-22.125,-10.28125,3.5625,16.3125,19.59375,11.375,-2.375,-19.40625,-23.84375,-19.59375,-17.875,2.125,12.78125,1.34375,-8.875,-17.6875,-10.53125,8.28125,6.625,4.75,-0.03125,2.9375,0.3125,-9.0625,-6.0,3.6875,-7.59375,-5.9375,10.875,2.40625,-0.90625,-6.28125,-15.4375,3.46875,9.34375,10.9375,17.46875,3.28125,15.90625,37.78125,53.375,51.96875,27.03125,30.0625,22.875,14.65625,15.1875,30.78125,54.6875,52.0625,42.59375,49.28125,30.90625,8.46875,19.625,29.21875,39.0,45.34375,33.28125,32.96875,11.1875,17.46875,20.09375,33.15625,39.0625,40.75,35.40625,28.78125,28.1875,38.625,46.34375,37.1875,26.75,15.0625,15.09375,40.9375,30.03125,26.0,24.78125,37.4375,48.90625,55.75,37.875,37.4375,20.03125,-17.96875,1.0
-5.46875,-6.125,-7.28125,-2.25,-5.96875,-8.75,-8.03125,-7.0,-5.40625,-4.5,2.1875,0.15625,-3.8125,-4.65625,-0.9375,-4.375,-3.375,-3.34375,-4.9375,-1.28125,-7.0625,-8.09375,-7.625,-6.09375,-8.15625,-5.25,-0.8125,-3.53125,-7.5,-6.03125,0.0,8.375,4.6875,4.46875,6.40625,-0.4375,3.0,-4.28125,-9.75,-7.71875,4.40625,7.5,-0.90625,3.8125,2.6875,-12.375,-13.625,-4.4375,-19.84375,-30.84375,-15.9375,-7.125,2.71875,11.78125,8.5,-8.65625,-20.125,-22.125,-10.28125,3.5625,16.3125,19.59375,11.375,-2.375,-19.40625,-23.84375,-19.59375,-17.875,2.125,12.78125,1.34375,-8.875,-17.6875,-10.53125,8.28125,6.625,4.75,-0.03125,2.9375,0.3125,-9.0625,-6.0,3.6875,-7.59375,-5.9375,10.875,2.40625,-0.90625,-6.28125,-15.4375,3.46875,9.34375,10.9375,17.46875,3.28125,-5.25,37.78125,53.375,51.96875,27.03125,30.0625,22.875,14.65625,15.1875,30.78125,54.6875,52.0625,42.59375,49.28125,30.90625,8.46875,19.625,29.21875,39.0,45.34375,33.28125,32.96875,11.1875,17.46875,20.09375,33.15625,39.0625,40.75,35.40625,28.78125,28.1875,38.625,46.34375,37.1875,26.75,15.0625,15.09375,40.9375,30.03125,26.0,24.78125,37.4375,48.90625,55.75,37.875,37.4375,20.03125,-17.96875,-5.59375,1.0
-6.125,-7.28125,-2.25,-5.96875,-8.75,-8.03125,-7.0,-5.40625,-4.5,2.1875,0.15625,-3.8125,-4.65625,-0.9375,-4.375,-3.375,-3.34375,-4.9375,-1.28125,-7.0625,-8.09375,-7.625,-6.09375,-8.15625,-5.25,-0.8125,-3.53125,-7.5,-6.03125,0.0,8.375,4.6875,4.46875,6.40625,-0.4375,3.0,-4.28125,-9.75,-7.71875,4.40625,7.5,-0.90625,3.8125,2.6875,-12.375,-13.625,-4.4375,-2.0,-30.84375,-15.9375,-7.125,2.71875,11.78125,8.5,-8.65625,-20.125,-22.125,-10.28125,3.5625,16.3125,19.59375,11.375,-2.375,-19.40625,-23.84375,-19.59375,-17.875,2.125,12.78125,1.34375,-8.875,-17.6875,-10.53125,8.28125,6.625,4.75,-0.03125,2.9375,0.3125,-9.0625,-6.0,3.6875,-7.59375,-5.9375,10.875,2.40625,-0.90625,-6.28125,-15.4375,3.46875,9.34375,10.9375,17.46875,3.28125,-5.25,-4.1875,53.375,51.96875,27.03125,30.0625,22.875,14.65625,15.1875,30.78125,54.6875,52.0625,42.59375,49.28125,30.90625,8.46875,19.625,29.21875,39.0,45.34375,33.28125,32.96875,11.1875,17.46875,20.09375,33.15625,39.0625,40.75,35.40625,28.78125,28.1875,38.625,46.34375,37.1875,26.75,15.0625,15.09375,40.9375,30.03125,26.0,24.78125,37.4375,48.90625,55.75,37.875,37.4375,20.03125,-17.96875,-5.59375,32.75,1.0
-7.28125,-2.25,-5.96875,-8.75,-8.03125,-7.0,-5.40625,-4.5,2.1875,0.15625,-3.8125,-4.65625,-0.9375,-4.375,-3.375,-3.34375,-4.9375,-1.28125,-7.0625,-8.09375,-7.625,-6.09375,-8.15625,-5.25,-0.8125,-3.53125,-7.5,-6.03125,0.0,8.375,4.6875,4.46875,6.40625,-0.4375,3.0,-4.28125,-9.75,-7.71875,4.40625,7.5,-0.90625,3.8125,2.6875,-12.375,-13.625,-4.4375,-2.0,-0.625,-15.9375,-7.125,2.71875,11.78125,8.5,-8.65625,-20.125,-22.125,-10.28125,3.5625,16.3125,19.59375,11.375,-2.375,-19.40625,-23.84375,-19.59375,-17.875,2.125,12.78125,1.34375,-8.875,-17.6875,-10.53125,8.28125,6.625,4.75,-0.03125,2.9375,0.3125,-9.0625,-6.0,3.6875,-7.59375,-5.9375,10.875,2.40625,-0.90625,-6.28125,-15.4375,3.46875,9.34375,10.9375,17.46875,3.28125,-5.25,-4.1875,-15.25,51.96875,27.03125,30.0625,22.875,14.65625,15.1875,30.78125,54.6875,52.0625,42.59375,49.28125,30.90625,8.46875,19.625,29.21875,39.0,45.34375,33.28125,32.96875,11.1875,17.46875,20.09375,33.15625,39.0625,40.75,35.40625,28.78125,28.1875,38.625,46.34375,37.1875,26.75,15.0625,15.09375,40.9375,30.03125,26.0,24.78125,37.4375,48.90625,55.75,37.875,37.4375,20.03125,-17.96875,-5.59375,32.75,62.1875,1.0
-2.25,-5.96875,-8.75,-8.03125,-7.0,-5.40625,-4.5,2.1875,0.15625,-3.8125,-4.65625,-0.9375,-4.375,-3.375,-3.34375,-4.9375,-1.28125,-7.0625,-8.09375,-7.625,-6.09375,-8.15625,-5.25,-0.8125,-3.53125,-7.5,-6.03125,0.0,8.375,4.6875,4.46875,6.40625,-0.4375,3.0,-4.28125,-9.75,-7.71875,4.40625,7.5,-0.90625,3.8125,2.6875,-12.375,-13.625,-4.4375,-2.0,-0.625,-0.71875,-7.125,2.71875,11.78125,8.5,-8.65625,-20.125,-22.125,-10.28125,3.5625,16.3125,19.59375,11.375,-2.375,-19.40625,-23.84375,-19.59375,-17.875,2.125,12.78125,1.34375,-8.875,-17.6875,-10.53125,8.28125,6.625,4.75,-0.03125,2.9375,0.3125,-9.0625,-6.0,3.6875,-7.59375,-5.9375,10.875,2.40625,-0.90625,-6.28125,-15.4375,3.46875,9.34375,10.9375,17.46875,3.28125,-5.25,-4.1875,-15.25,-23.28125,27.03125,30.0625,22.875,14.65625,15.1875,30.78125,54.6875,52.0625,42.59375,49.28125,30.90625,8.46875,19.625,29.21875,39.0,45.34375,33.28125,32.96875,11.1875,17.46875,20.09375,33.15625,39.0625,40.75,35.40625,28.78125,28.1875,38.625,46.34375,37.1875,26.75,15.0625,15.09375,40.9375,30.03125,26.0,24.78125,37.4375,48.90625,55.75,37.875,37.4375,20.03125,-17.96875,-5.59375,32.75,62.1875,58.75,1.0
-5.96875,-8.75,-8.03125,-7.0,-5.40625,-4.5,2.1875,0.15625,-3.8125,-4.65625,-0.9375,-4.375,-3.375,-3.34375,-4.9375,-1.28125,-7.0625,-8.09375,-7.625,-6.09375,-8.15625,-5.25,-0.8125,-3.53125,-7.5,-6.03125,0.0,8.375,4.6875,4.46875,6.40625,-0.4375,3.0,-4.28125,-9.75,-7.71875,4.40625,7.5,-0.90625,3.8125,2.6875,-12.375,-13.625,-4.4375,-2.0,-0.625,-0.71875,-0.625,2.71875,11.78125,8.5,-8.65625,-20.125,-22.125,-10.28125,3.5625,16.3125,19.59375,11.375,-2.375,-19.40625,-23.84375,-19.59375,-17.875,2.125,12.78125,1.34375,-8.875,-17.6875,-10.53125,8.28125,6.625,4.75,-0.03125,2.9375,0.3125,-9.0625,-6.0,3.6875,-7.59375,-5.9375,10.875,2.40625,-0.90625,-6.28125,-15.4375,3.46875,9.34375,10.9375,17.46875,3.28125,-5.25,-4.1875,-15.25,-23.28125,-20.53125,30.0625,22.875,14.65625,15.1875,30.78125,54.6875,52.0625,42.59375,49.28125,30.90625,8.46875,19.625,29.21875,39.0,45.34375,33.28125,32.96875,11.1875,17.46875,20.09375,33.15625,39.0625,40.75,35.40625,28.78125,28.1875,38.625,46.34375,37.1875,26.75,15.0625,15.09375,40.9375,30.03125,26.0,24.78125,37.4375,48.90625,55.75,37.875,37.4375,20.03125,-17.96875,-5.59375,32.75,62.1875,58.75,44.65625,1.0
-8.75,-8.03125,-7.0,-5.40625,-4.5,2.1875,0.15625,-3.8125,-4.65625,-0.9375,-4.375,-3.375,-3.34375,-4.9375,-1.28125,-7.0625,-8.09375,-7.625,-6.09375,-8.15625,-5.25,-0.8125,-3.53125,-7.5,-6.03125,0.0,8.375,4.6875,4.46875,6.40625,-0.4375,3.0,-4.28125,-9.75,-7.71875,4.40625,7.5,-0.90625,3.8125,2.6875,-12.375,-13.625,-4.4375,-2.0,-0.625,-0.71875,-0.625,-2.4375,11.78125,8.5,-8.65625,-20.125,-22.125,-10.28125,3.5625,16.3125,19.59375,11.375,-2.375,-19.40625,-23.84375,-19.59375,-17.875,2.125,12.78125,1.34375,-8.875,-17.6875,-10.53125,8.28125,6.625,4.75,-0.03125,2.9375,0.3125,-9.0625,-6.0,3.6875,-7.59375,-5.9375,10.875,2.40625,-0.90625,-6.28125,-15.4375,3.46875,9.34375,10.9375,17.46875,3.28125,-5.25,-4.1875,-15.25,-23.28125,-20.53125,-9.5625,22.875,14.65625,15.1875,30.78125,54.6875,52.0625,42.59375,49.28125,30.90625,8.46875,19.625,29.21875,39.0,45.34375,33.28125,32.96875,11.1875,17.46875,20.09375,33.15625,39.0625,40.75,35.40625,28.78125,28.1875,38.625,46.34375,37.1875,26.75,15.0625,15.09375,40.9375,30.03125,26.0,24.78125,37.4375,48.90625,55.75,37.875,37.4375,20.03125,-17.96875,-5.59375,32.75,62.1875,58.75,44.65625,36.21875,1.0
-8.03125,-7.0,-5.40625,-4.5,2.1875,0.15625,-3.8125,-4.65625,-0.9375,-4.375,-3.375,-3.34375,-4.9375,-1.28125,-7.0625,-8.09375,-7.625,-6.09375,-8.15625,-5.25,-0.8125,-3.53125,-7.5,-6.03125,0.0,8.375,4.6875,4.46875,6.40625,-0.4375,3.0,-4.28125,-9.75,-7.71875,4.40625,7.5,-0.90625,3.8125,2.6875,-12.375,-13.625,-4.4375,-2.0,-0.625,-0.71875,-0.625,-2.4375,-3.78125,8.5,-8.65625,-20.125,-22.125,-10.28125,3.5625,16.3125,19.59375,11.375,-2.375,-19.40625,-23.84375,-19.59375,-17.875,2.125,12.78125,1.34375,-8.875,-17.6875,-10.53125,8.28125,6.625,4.75,-0.03125,2.9375,0.3125,-9.0625,-6.0,3.6875,-7.59375,-5.9375,10.875,2.40625,-0.90625,-6.28125,-15.4375,3.46875,9.34375,10.9375,17.46875,3.28125,-5.25,-4.1875,-15.25,-23.28125,-20.53125,-9.5625,-2.78125,14.65625,15.1875,30.78125,54.6875,52.0625,42.59375,49.28125,30.90625,8.46875,19.625,29.21875,39.0,45.34375,33.28125,32.96875,11.1875,17.46875,20.09375,33.15625,39.0625,40.75,35.40625,28.78125,28.1875,38.625,46.34375,37.1875,26.75,15.0625,15.09375,40.9375,30.03125,26.0,24.78125,37.4375,48.90625,55.75,37.875,37.4375,20.03125,-17.96875,-5.59375,32.75,62.1875,58.75,44.65625,36.21875,35.65625,1.0
-7.0,-5.40625,-4.5,2.1875,0.15625,-3.8125,-4.65625,-0.9375,-4.375,-3.375,-3.34375,-4.9375,-1.28125,-7.0625,-8.09375,-7.625,-6.09375,-8.15625,-5.25,-0.8125,-3.53125,-7.5,-6.03125,0.0,8.375,4.6875,4.46875,6.40625,-0.4375,3.0,-4.28125,-9.75,-7.71875,4.40625,7.5,-0.90625,3.8125,2.6875,-12.375,-13.625,-4.4375,-2.0,-0.625,-0.71875,-0.625,-2.4375,-3.78125,-4.125,-8.65625,-20.125,-22.125,-10.28125,3.5625,16.3125,19.59375,11.375,-2.375,-19.40625,-23.84375,-19.59375,-17.875,2.125,12.78125,1.34375,-8.875,-17.6875,-10.53125,8.28125,6.625,4.75,-0.03125,2.9375,0.3125,-9.0625,-6.0,3.6875,-7.59375,-5.9375,10.875,2.40625,-0.90625,-6.28125,-15.4375,3.46875,9.34375,10.9375,17.46875,3.28125,-5.25,-4.1875,-15.25,-23.28125,-20.53125,-9.5625,-2.78125,-2.53125,15.1875,30.78125,54.6875,52.0625,42.59375,49.28125,30.90625,8.46875,19.625,29.21875,39.0,45.34375,33.28125,32.96875,11.1875,17.46875,20.09375,33.15625,39.0625,40.75,35.40625,28.78125,28.1875,38.625,46.34375,37.1875,26.75,15.0625,15.09375,40.9375,30.03125,26.0,24.78125,37.4375,48.90625,55.75,37.875,37.4375,20.03125,-17.96875,-5.59375,32.75,62.1875,58.75,44.65625,36.21875,35.65625,38.3125,1.0
-5.40625,-4.5,2.1875,0.15625,-3.8125,-4.65625,-0.9375,-4.375,-3.375,-3.34375,-4.9375,-1.28125,-7.0625,-8.09375,-7.625,-6.09375,-8.15625,-5.25,-0.8125,-3.53125,-7.5,-6.03125,0.0,8.375,4.6875,4.46875,6.40625,-0.4375,3.0,-4.28125,-9.75,-7.71875,4.40625,7.5,-0.90625,3.8125,2.6875,-12.375,-13.625,-4.4375,-2.0,-0.625,-0.71875,-0.625,-2.4375,-3.78125,-4.125,-3.9375,-20.125,-22.125,-10.28125,3.5625,16.3125,19.59375,11.375,-2.375,-19.40625,-23.84375,-19.59375,-17.875,2.125,12.78125,1.34375,-8.875,-17.6875,-10.53125,8.28125,6.625,4.75,-0.03125,2.9375,0.3125,-9.0625,-6.0,3.6875,-7.59375,-5.9375,10.875,2.40625,-0.90625,-6.28125,-15.4375,3.46875,9.34375,10.9375,17.46875,3.28125,-5.25,-4.1875,-15.25,-23.28125,-20.53125,-9.5625,-2.78125,-2.53125,-3.125,30.78125,54.6875,52.0625,42.59375,49.28125,30.90625,8.46875,19.625,29.21875,39.0,45.34375,33.28125,32.96875,11.1875,17.46875,20.09375,33.15625,39.0625,40.75,35.40625,28.78125,28.1875,38.625,46.34375,37.1875,26.75,15.0625,15.09375,40.9375,30.03125,26.0,24.78125,37.4375,48.90625,55.75,37.875,37.4375,20.03125,-17.96875,-5.59375,32.75,62.1875,58.75,44.65625,36.21875,35.65625,38.3125,39.5625,1.0
-4.5,2.1875,0.15625,-3.8125,-4.65625,-0.9375,-4.375,-3.375,-3.34375,-4.9375,-1.28125,-7.0625,-8.09375,-7.625,-6.09375,-8.15625,-5.25,-0.8125,-3.53125,-7.5,-6.03125,0.0,8.375,4.6875,4.46875,6.40625,-0.4375,3.0,-4.28125,-9.75,-7.71875,4.40625,7.5,-0.90625,3.8125,2.6875,-12.375,-13.625,-4.4375,-2.0,-0.625,-0.71875,-0.625,-2.4375,-3.78125,-4.125,-3.9375,-12.96875,-22.125,-10.28125,3.5625,16.3125,19.59375,11.375,-2.375,-19.40625,-23.84375,-19.59375,-17.875,2.125,12.78125,1.34375,-8.875,-17.6875,-10.53125,8.28125,6.625,4.75,-0.03125,2.9375,0.3125,-9.0625,-6.0,3.6875,-7.59375,-5.9375,10.875,2.40625,-0.90625,-6.28125,-15.4375,3.46875,9.34375,10.9375,17.46875,3.28125,-5.25,-4.1875,-15.25,-23.28125,-20.53125,-9.5625,-2.78125,-2.53125,-3.125,6.5625,54.6875,52.0625,42.59375,49.28125,30.90625,8.46875,19.625,29.21875,39.0,45.34375,33.28125,32.96875,11.1875,17.46875,20.09375,33.15625,39.0625,40.75,35.40625,28.78125,28.1875,38.625,46.34375,37.1875,26.75,15.0625,15.09375,40.9375,30.03125,26.0,24.78125,37.4375,48.90625,55.75,37.875,37.4375,20.03125,-17.96875,-5.59375,32.75,62.1875,58.75,44.65625,36.21875,35.65625,38.3125,39.5625,30.78125,1.0
2.1875,0.15625,-3.8125,-4.65625,-0.9375,-4.375,-3.375,-3.34375,-4.9375,-1.28125,-7.0625,-8.09375,-7.625,-6.09375,-8.15625,-5.25,-0.8125,-3.53125,-7.5,-6.03125,0.0,8.375,4.6875,4.46875,6.40625,-0.4375,3.0,-4.28125,-9.75,-7.71875,4.40625,7.5,-0.90625,3.8125,2.6875,-12.375,-13.625,-4.4375,-2.0,-0.625,-0.71875,-0.625,-2.4375,-3.78125,-4.125,-3.9375,-12.96875,-18.75,-10.28125,3.5625,16.3125,19.59375,11.375,-2.375,-19.40625,-23.84375,-19.59375,-17.875,2.125,12.78125,1.34375,-8.875,-17.6875,-10.53125,8.28125,6.625,4.75,-0.03125,2.9375,0.3125,-9.0625,-6.0,3.6875,-7.59375,-5.9375,10.875,2.40625,-0.90625,-6.28125,-15.4375,3.46875,9.34375,10.9375,17.46875,3.28125,-5.25,-4.1875,-15.25,-23.28125,-20.53125,-9.5625,-2.78125,-2.53125,-3.125,6.5625,-1.78125,52.0625,42.59375,49.28125,30.90625,8.46875,19.625,29.21875,39.0,45.34375,33.28125,32.96875,11.1875,17.46875,20.09375,33.15625,39.0625,40.75,35.40625,28.78125,28.1875,38.625,46.34375,37.1875,26.75,15.0625,15.09375,40.9375,30.03125,26.0,24.78125,37.4375,48.90625,55.75,37.875,37.4375,20.03125,-17.96875,-5.59375,32.75,62.1875,58.75,44.65625,36.21875,35.65625,38.3125,39.5625,30.78125,-9.40625,1.0
0.15625,-3.8125,-4.65625,-0.9375,-4.375,-3.375,-3.34375,-4.9375,-1.28125,-7.0625,-8.09375,-7.625,-6.09375,-8.15625,-5.25,-0.8125,-3.53125,-7.5,-6.03125,0.0,8.375,4.6875,4.46875,6.40625,-0.4375,3.0,-4.28125,-9.75,-7.71875,4.40625,7.5,-0.90625,3.8125,2.6875,-12.375,-13.625,-4.4375,-2.0,-0.625,-0.71875,-0.625,-2.4375,-3.78125,-4.125,-3.9375,-12.96875,-18.75,-10.03125,3.5625,16.3125,19.59375,11.375,-2.375,-19.40625,-23.84375,-19.59375,-17.875,2.125,12.78125,1.34375,-8.875,-17.6875,-10.53125,8.28125,6.625,4.75,-0.03125,2.9375,0.3125,-9.0625,-6.0,3.6875,-7.59375,-5.9375,10.875,2.40625,-0.90625,-6.28125,-15.4375,3.46875,9.34375,10.9375,17.46875,3.28125,-5.25,-4.1875,-15.25,-23.28125,-20.53125,-9.5625,-2.78125,-2.53125,-3.125,6.5625,-1.78125,-5.71875,42.59375,49.28125,30.90625,8.46875,19.625,29.21875,39.0,45.34375,33.28125,32.96875,11.1875,17.46875,20.09375,33.15625,39.0625,40.75,35.40625,28.78125,28.1875,38.625,46.34375,37.1875,26.75,15.0625,15.09375,40.9375,30.03125,26.0,24.78125,37.4375,48.90625,55.75,37.875,37.4375,20.03125,-17.96875,-5.59375,32.75,62.1875,58.75,44.65625,36.21875,35.65625,38.3125,39.5625,30.78125,-9.40625,2.5,1.0
-3.8125,-4.65625,-0.9375,-4.375,-3.375,-3.34375,-4.9375,-1.28125,-7.0625,-8.09375,-7.625,-6.09375,-8.15625,-5.25,-0.8125,-3.53125,-7.5,-6.03125,0.0,8.375,4.6875,4.46875,6.40625,-0.4375,3.0,-4.28125,-9.75,-7.71875,4.40625,7.5,-0.90625,3.8125,2.6875,-12.375,-13.625,-4.4375,-2.0,-0.625,-0.71875,-0.625,-2.4375,-3.78125,-4.125,-3.9375,-12.96875,-18.75,-10.03125,-7.25,16.3125,19.59375,11.375,-2.375,-19.40625,-23.84375,-19.59375,-17.875,2.125,12.78125,1.34375,-8.875,-17.6875,-10.53125,8.28125,6.625,4.75,-0.03125,2.9375,0.3125,-9.0625,-6.0,3.6875,-7.59375,-5.9375,10.875,2.40625,-0.90625,-6.28125,-15.4375,3.46875,9.34375,10.9375,17.46875,3.28125,-5.25,-4.1875,-15.25,-23.28125,-20.53125,-9.5625,-2.78125,-2.53125,-3.125,6.5625,-1.78125,-5.71875,0.71875,49.28125,30.90625,8.46875,19.625,29.21875,39.0,45.34375,33.28125,32.96875,11.1875,17.46875,20.09375,33.15625,39.0625,40.75,35.40625,28.78125,28.1875,38.625,46.34375,37.1875,26.75,15.0625,15.09375,40.9375,30.03125,26.0,24.78125,37.4375,48.90625,55.75,37.875,37.4375,20.03125,-17.96875,-5.59375,32.75,62.1875,58.75,44.65625,36.21875,35.65625,38.3125,39.5625,30.78125,-9.40625,2.5,21.21875,1.0
-4.65625,-0.9375,-4.375,-3.375,-3.34375,-4.9375,-1.28125,-7.0625,-8.09375,-7.625,-6.09375,-8.15625,-5.25,-0.8125,-3.53125,-7.5,-6.03125,0.0,8.375,4.6875,4.46875,6.40625,-0.4375,3.0,-4.28125,-9.75,-7.71875,4.40625,7.5,-0.90625,3.8125,2.6875,-12.375,-13.625,-4.4375,-2.0,-0.625,-0.71875,-0.625,-2.4375,-3.78125,-4.125,-3.9375,-12.96875,-18.75,-10.03125,-7.25,-5.8125,19.59375,11.375,-2.375,-19.40625,-23.84375,-19.59375,-17.875,2.125,12.78125,1.34375,-8.875,-17.6875,-10.53125,8.28125,6.625,4.75,-0.03125,2.9375,0.3125,-9.0625,-6.0,3.6875,-7.59375,-5.9375,10.875,2.40625,-0.90625,-6.28125,-15.4375,3.46875,9.34375,10.9375,17.46875,3.28125,-5.25,-4.1875,-15.25,-23.28125,-20.53125,-9.5625,-2.78125,-2.53125,-3.125,6.5625,-1.78125,-5.71875,0.71875,11.1875,30.90625,8.46875,19.625,29.21875,39.0,45.34375,33.28125,32.96875,11.1875,17.46875,20.09375,33.15625,39.0625,40.75,35.40625,28.78125,28.1875,38.625,46.34375,37.1875,26.75,15.0625,15.09375,40.9375,30.03125,26.0,24.78125,37.4375,48.90625,55.75,37.875,37.4375,20.03125,-17.96875,-5.59375,32.75,62.1875,58.75,44.65625,36.21875,35.65625,38.3125,39.5625,30.78125,-9.40625,2.5,21.21875,32.625,1.0
-0.9375,-4.375,-3.375,-3.34375,-4.9375,-1.28125,-7.0625,-8.09375,-7.625,-6.09375,-8.15625,-5.25,-0.8125,-3.53125,-7.5,-6.03125,0.0,8.375,4.6875,4.46875,6.40625,-0.4375,3.0,-4.28125,-9.75,-7.71875,4.40625,7.5,-0.90625,3.8125,2.6875,-12.375,-13.625,-4.4375,-2.0,-0.625,-0.71875,-0.625,-2.4375,-3.78125,-4.125,-3.9375,-12.96875,-18.75,-10.03125,-7.25,-5.8125,-4.84375,11.375,-2.375,-19.40625,-23.84375,-19.59375,-17.875,2.125,12.78125,1.34375,-8.875,-17.6875,-10.53125,8.28125,6.625,4.75,-0.03125,2.9375,0.3125,-9.0625,-6.0,3.6875,-7.59375,-5.9375,10.875,2.40625,-0.90625,-6.28125,-15.4375,3.46875,9.34375,10.9375,17.46875,3.28125,-5.25,-4.1875,-15.25,-23.28125,-20.53125,-9.5625,-2.78125,-2.53125,-3.125,6.5625,-1.78125,-5.71875,0.71875,11.1875,4.6875,8.46875,19.625,29.21875,39.0,45.34375,33.28125,32.96875,11.1875,17.46875,20.09375,33.15625,39.0625,40.75,35.40625,28.78125,28.1875,38.625,46.34375,37.1875,26.75,15.0625,15.09375,40.9375,30.03125,26.0,24.78125,37.4375,48.90625,55.75,37.875,37.4375,20.03125,-17.96875,-5.59375,32.75,62.1875,58.75,44.65625,36.21875,35.65625,38.3125,39.5625,30.78125,-9.40625,2.5,21.21875,32.625,48.25,1.0
-4.375,-3.375,-3.34375,-4.9375,-1.28125,-7.0625,-8.09375,-7.625,-6.09375,-8.15625,-5.25,-0.8125,-3.53125,-7.5,-6.03125,0.0,8.375,4.6875,4.46875,6.40625,-0.4375,3.0,-4.28125,-9.75,-7.71875,4.40625,7.5,-0.90625,3.8125,2.6875,-12.375,-13.625,-4.4375,-2.0,-0.625,-0.71875,-0.625,-2.4375,-3.78125,-4.125,-3.9375,-12.96875,-18.75,-10.03125,-7.25,-5.8125,-4.84375,-3.96875,-2.375,-19.40625,-23.84375,-19.59375,-17.875,2.125,12.78125,1.34375,-8.875,-17.6875,-10.53125,8.28125,6.625,4.75,-0.03125,2.9375,0.3125,-9.0625,-6.0,3.6875,-7.59375,-5.9375,10.875,2.40625,-0.90625,-6.28125,-15.4375,3.46875,9.34375,10.9375,17.46875,3.28125,-5.25,-4.1875,-15.25,-23.28125,-20.53125,-9.5625,-2.78125,-2.53125,-3.125,6.5625,-1.78125,-5.71875,0.71875,11.1875,4.6875,-9.375,19.625,29.21875,39.0,45.34375,33.28125,32.96875,11.1875,17.46875,20.09375,33.15625,39.0625,40.75,35.40625,28.78125,28.1875,38.625,46.34375,37.1875,26.75,15.0625,15.09375,40.9375,30.03125,26.0,24.78125,37.4375,48.90625,55.75,37.875,37.4375,20.03125,-17.96875,-5.59375,32.75,62.1875,58.75,44.65625,36.21875,35.65625,38.3125,39.5625,30.78125,-9.40625,2.5,21.21875,32.625,48.25,59.3125,1.0
-3.375,-3.34375,-4.9375,-1.28125,-7.0625,-8.09375,-7.625,-6.09375,-8.15625,-5.25,-0.8125,-3.53125,-7.5,-6.03125,0.0,8.375,4.6875,4.46875,6.40625,-0.4375,3.0,-4.28125,-9.75,-7.71875,4.40625,7.5,-0.90625,3.8125,2.6875,-12.375,-13.625,-4.4375,-2.0,-0.625,-0.71875,-0.625,-2.4375,-3.78125,-4.125,-3.9375,-12.96875,-18.75,-10.03125,-7.25,-5.8125,-4.84375,-3.96875,-10.125,-19.40625,-23.84375,-19.59375,-17.875,2.125,12.78125,1.34375,-8.875,-17.6875,-10.53125,8.28125,6.625,4.75,-0.03125,2.9375,0.3125,-9.0625,-6.0,3.6875,-7.59375,-5.9375,10.875,2.40625,-0.90625,-6.28125,-15.4375,3.46875,9.34375,10.9375,17.46875,3.28125,-5.25,-4.1875,-15.25,-23.28125,-20.53125,-9.5625,-2.78125,-2.53125,-3.125,6.5625,-1.78125,-5.71875,0.71875,11.1875,4.6875,-9.375,-17.6875,29.21875,39.0,45.34375,33.28125,32.96875,11.1875,17.46875,20.09375,33.15625,39.0625,40.75,35.40625,28.78125,28.1875,38.625,46.34375,37.1875,26.75,15.0625,15.09375,40.9375,30.03125,26.0,24.78125,37.4375,48.90625,55.75,37.875,37.4375,20.03125,-17.96875,-5.59375,32.75,62.1875,58.75,44.65625,36.21875,35.65625,38.3125,39.5625,30.78125,-9.40625,2.5,21.21875,32.625,48.25,59.3125,66.40625,1.0
-3.34375,-4.9375,-1.28125,-7.0625,-8.09375,-7.625,-6.09375,-8.15625,-5.25,-0.8125,-3.53125,-7.5,-6.03125,0.0,8.375,4.6875,4.46875,6.40625,-0.4375,3.0,-4.28125,-9.75,-7.71875,4.40625,7.5,-0.90625,3.8125,2.6875,-12.375,-13.625,-4.4375,-2.0,-0.625,-0.71875,-0.625,-2.4375,-3.78125,-4.125,-3.9375,-12.96875,-18.75,-10.03125,-7.25,-5.8125,-4.84375,-3.96875,-10.125,-7.0625,-23.84375,-19.59375,-17.875,2.125,12.78125,1.34375,-8.875,-17.6875,-10.53125,8.28125,6.625,4.75,-0.03125,2.9375,0.3125,-9.0625,-6.0,3.6875,-7.59375,-5.9375,10.875,2.40625,-0.90625,-6.28125,-15.4375,3.46875,9.34375,10.9375,17.46875,3.28125,-5.25,-4.1875,-15.25,-23.28125,-20.53125,-9.5625,-2.78125,-2.53125,-3.125,6.5625,-1.78125,-5.71875,0.71875,11.1875,4.6875,-9.375,-17.6875,-13.40625,39.0,45.34375,33.28125,32.96875,11.1875,17.46875,20.09375,33.15625,39.0625,40.75,35.40625,28.78125,28.1875,38.625,46.34375,37.1875,26.75,15.0625,15.09375,40.9375,30.03125,26.0,24.78125,37.4375,48.90625,55.75,37.875,37.4375,20.03125,-17.96875,-5.59375,32.75,62.1875,58.75,44.65625,36.21875,35.65625,38.3125,39.5625,30.78125,-9.40625,2.5,21.21875,32.625,48.25,59.3125,66.40625,57.875,1.0
