acc_x,acc_y,acc_z
0,-10,993
-2,-10,989
-3,-8,995
-5,-12,992
-5,-12,995
-5,-15,994
-4,-16,994
-3,-15,992
-1,-14,992
0,-11,995
1,-9,993
0,-8,991
1,-8,995
0,-11,994
-3,-13,994
-4,-15,994
-4,-15,996
-3,-15,993
-3,-12,986
4,-14,1002
130,-293,995
169,-643,1078
-334,-70,1303
-140,382,1489
-94,278,1415
-112,-39,1065
-181,-124,1100
-313,-60,1264
-290,32,1261
-280,-15,1189
-259,-64,1066
-163,-7,755
-213,-108,676
-314,-247,776
-360,-280,835
-321,-258,746
-354,-245,766
-333,-208,703
-302,-206,605
-301,-346,555
-299,-375,712
-319,-242,971
-275,-179,927
-213,-73,872
-189,-8,877
-214,23,945
-190,38,1118
-219,-62,1235
-187,-78,1153
-145,85,1107
-135,146,1140
-104,136,1137
-104,203,1299
33,187,1155
-33,15,828
-195,-174,593
-347,-274,300
-298,13,290
-203,181,237
-84,123,709
22,80,1417
-92,-371,1580
-64,-444,1790
-48,-188,1541
14,258,1142
-59,409,874
-140,548,752
-254,369,189
-184,265,297
-53,-62,918
-100,-541,1968
-209,-768,1797
-69,-292,1625
-46,93,1301
-121,1155,1082
-172,695,618
-198,191,15
-232,-153,326
-230,-708,1377
-156,-800,1765
-126,-405,1689
62,32,1255
-140,729,1367
-266,957,301
-196,472,382
-139,18,509
-175,-635,1209
-196,-987,1708
-233,-510,1663
-72,-228,865
-191,87,962
-280,377,732
-257,272,469
-224,-277,486
-173,-644,985
-144,-708,1750
70,-329,1666
5,114,1363
-122,522,1577
-149,627,989
-30,364,271
-140,-76,628
-108,-621,935
-107,-763,1248
-158,-627,1451
-41,-572,1065
-226,68,1055
-259,409,358
-244,43,559
-195,-284,643
-261,-566,1061
-168,-337,1250
-26,265,1304
-113,212,1133
-240,152,921
-193,-1,902
0,94,1236
268,10,1483
150,-290,1190
143,-192,856
205,118,482
-14,-243,483
96,-190,1310
-137,348,961
-312,77,832
-247,-29,793
141,-201,1198
240,-494,1565
-29,111,1784
122,299,1212
86,350,1198
-396,559,641
-436,105,-575
-142,-168,-179
-64,-134,1048
-20,-488,1990
-23,-745,1880
-20,-657,1429
-78,-306,1159
-121,-89,1141
-132,-81,1226
-126,-100,1266
-415,210,985
-600,-57,-301
-321,-183,80
-232,23,679
-186,358,1044
-155,150,1544
-127,-300,1898
-324,-566,2125
-226,-429,1852
-67,-340,1395
-16,-201,1435
-15,-120,1390
-151,99,1147
-435,383,771
-284,828,175
-146,418,-195
51,302,399
10,216,1423
-62,-644,1888
-103,-1164,1806
-61,-808,1752
152,-129,1243
2,348,1122
-539,916,1013
-708,907,661
-639,314,263
-267,80,365
-54,90,496
-26,-384,1270
-434,-1093,2114
-247,-1081,2249
75,-512,1560
133,41,1405
-126,585,1454
-701,754,942
-879,435,126
-425,28,-259
-240,-188,-26
-142,-644,1057
-432,-920,2762
-217,-801,2485
71,-67,1683
-52,388,859
-453,646,1537
-676,601,835
-650,-3,96
-330,-195,439
-277,-594,1038
-247,-1028,1518
-293,-874,2079
-144,-617,1616
-216,-36,1049
-645,575,1484
-967,498,169
-820,-176,-1107
-517,-281,-160
-421,-728,657
-199,-863,1709
-237,-837,1907
-102,-440,1206
-157,136,1109
-372,467,1174
-687,458,710
-830,149,21
-699,82,4
-533,-115,422
-475,-457,732
-410,-498,1127
-334,-264,1253
-320,24,1091
-356,295,950
-668,564,822
-956,566,406
-710,372,-58
-361,153,411
-321,-339,1013
-222,-501,1668
-265,-337,1901
-292,-72,1443
-290,227,1129
-431,392,1089
-688,618,920
-942,650,299
-708,435,-126
-336,302,288
-313,-94,821
-190,-445,1221
-93,-376,1975
-179,20,1901
-109,390,1467
-203,674,1396
-528,775,1171
-708,742,446
-724,325,-369
-228,374,122
-246,91,909
-111,-285,1560
-53,-285,2422
-88,126,2024
-70,544,1342
-133,808,1352
-414,765,874
-462,224,-300
-316,70,-466
-81,-76,524
-111,-404,1326
76,-493,2627
149,-339,2220
130,82,1699
3,447,1537
-282,707,1044
-433,508,-141
-229,200,-413
-33,-79,532
-86,-326,1188
77,-356,2519
108,-139,2230
165,335,1388
-80,760,1447
-432,1220,1042
-513,557,-528
-197,-137,-827
-413,-634,355
-136,-686,3248
103,-277,2982
127,422,1515
-145,1070,1813
-447,1251,679
-413,62,-1292
30,-111,-664
-23,-474,986
14,-400,3437
252,-339,2516
301,255,1237
-137,869,1409
-266,1173,633
-197,404,-187
102,-359,251
27,-804,1860
97,-478,2880
151,131,1305
43,248,671
-220,520,894
-506,1142,925
-350,69,153
0,-1035,277
85,-1049,1356
140,-382,2559
109,-12,1340
23,-79,997
-372,691,1308
-503,757,624
-338,-198,9
-120,-543,431
-15,-573,1162
-32,-653,2020
71,-484,1624
-101,-100,1190
-331,492,1718
-277,822,1789
-97,-214,340
-418,-678,563
-356,-669,857
-394,-625,1136
-330,-418,1302
-291,-288,909
-262,-283,776
-405,-97,1483
-548,729,2261
-438,232,1061
-362,-304,340
-287,-256,-132
-160,-370,-186
56,-529,284
29,-583,1616
-65,-273,1974
-76,-16,1286
-289,689,1417
-655,1750,998
-592,1115,185
-355,457,279
0,38,775
-282,-705,1513
-225,-870,1586
-184,-669,1134
-145,-227,1071
-70,212,785
-413,485,785
-735,1151,1298
-898,1198,937
-541,755,622
-159,-84,1072
-190,-725,1923
-170,-940,1883
-102,-777,1203
-23,-435,1145
48,11,1475
-21,512,1418
-228,749,898
-1036,762,666
-690,485,419
-331,75,807
-115,-155,1085
-140,-281,1119
-294,-482,1082
-203,-539,1415
-16,-415,1379
19,-212,1236
-18,-48,1165
-267,47,1014
-202,498,913
-874,757,865
-505,391,822
-205,17,1110
-189,-340,1357
-284,-608,1250
-390,-571,1251
-215,-177,1014
-229,72,740
-166,-95,721
-304,-273,743
-152,181,1341
-631,1034,1342
-663,1221,866
-295,830,541
-3,459,976
28,27,1492
-90,-528,1484
-169,-913,1351
-114,-763,1237
-38,-424,965
-59,-215,1006
-252,-15,1080
-578,865,871
-623,1069,616
-231,712,1111
18,202,1659
-53,-148,1670
-121,-422,1365
-195,-629,1178
-170,-501,1108
-50,-250,975
-43,-149,853
-106,-187,856
-453,207,956
-697,938,1189
-526,860,919
-76,565,935
58,134,1374
-62,-340,1704
-168,-818,1567
-202,-740,1517
-74,-213,1079
16,186,892
-152,119,880
-507,84,764
-748,507,1184
-740,446,856
-354,211,844
-229,-174,1053
-252,-771,1266
-144,-1154,1402
-53,-815,1285
-72,-187,873
-331,389,968
-669,793,932
-732,578,1102
-310,30,995
-173,-537,1262
-142,-1228,1858
-126,-1162,1437
-119,-244,583
-218,259,656
-508,652,1040
-649,668,615
-595,100,662
-439,-541,740
-276,-1273,1253
-111,-1053,2022
11,-188,1023
-56,256,731
-353,521,1422
-583,663,1194
-615,68,568
-435,-191,489
-227,-766,981
-204,-785,2114
-83,-340,1491
-100,211,748
-282,694,1369
-518,723,1282
-531,-88,359
-475,-413,450
-247,-796,798
-143,-741,1801
-38,-377,1523
-38,16,734
-204,617,1317
-439,961,1487
-553,72,588
-478,-522,459
-296,-1112,636
-49,-964,1595
34,-326,1461
-21,9,615
-185,389,1374
-378,808,1776
-497,155,737
-413,-387,457
-225,-915,826
-106,-961,1494
-30,-412,1368
-38,-65,631
-193,216,1253
-381,845,1594
-435,310,845
-393,-240,658
-218,-699,1233
-209,-1016,1432
-203,-522,1365
-156,-12,868
-120,58,746
-188,-27,930
-343,525,1303
-388,694,1305
-382,-45,780
-103,-438,1094
-125,-724,1309
-138,-787,1166
-111,-466,807
-118,-139,632
-130,-37,714
-210,118,1024
-343,285,1495
-357,-95,1404
-267,-470,1072
-136,-447,1076
-203,-405,1050
-227,-508,959
-182,-609,791
-128,-663,695
-77,-605,654
-47,-463,576
-176,-279,872
-363,238,1558
-376,346,1610
-155,-144,1065
-50,-467,846
-136,-626,963
-221,-734,936
-231,-673,683
-185,-379,898
-181,-175,711
-292,-200,775
-379,-90,957
-462,221,1178
-482,215,1006
-373,-51,945
-301,-332,895
-297,-704,1102
-288,-1042,1054
-241,-987,1016
-170,-737,891
-155,-400,901
-346,243,995
-568,996,1108
-433,599,802
-177,105,1154
28,-531,1480
-175,-1319,1543
-175,-1551,1371
-3,-903,1109
11,-330,801
-80,-142,822
-387,492,1138
-489,1132,1303
-423,381,1001
-88,-291,1041
-93,-890,1055
-248,-1276,966
-160,-1015,1332
-95,-590,1049
-139,-332,929
-187,4,1162
-275,438,1409
-386,399,729
-393,-81,613
-156,-378,823
-73,-742,936
-199,-907,886
-170,-788,938
-21,-472,1021
-30,-244,1001
-40,-149,1101
-209,244,1474
-359,562,1495
-384,225,1105
-198,-340,1004
-119,-919,1089
-110,-1197,909
-102,-835,946
-138,-523,661
-119,-453,727
-158,-615,816
-216,-575,1138
-315,-407,1279
-353,-390,1142
-298,-626,1052
-262,-614,839
-331,-158,473
-338,-14,-14
-283,-194,79
-205,-556,563
-185,-698,1048
-207,-650,1412
-209,-628,1232
-227,-586,1115
-174,-672,1144
-175,-720,790
-133,-420,1605
-130,-214,1662
-55,-114,1436
-55,-44,1333
-129,-192,846
-277,-347,618
-348,-225,846
-464,-160,761
-594,-12,163
-499,240,324
-296,335,491
-71,506,1285
-75,263,1636
-142,118,1446
-237,-117,984
-215,-208,2275
-387,-471,1693
-150,119,1354
41,668,1184
-7,841,1210
-26,765,1066
-156,388,786
-283,-166,189
-270,-517,880
-427,-534,926
-360,-245,258
-239,-45,173
41,230,566
335,563,1127
555,641,1886
583,546,1983
803,411,1347
675,-63,734
479,-427,963
336,-498,1733
331,-243,1886
448,-33,1690
658,189,1574
793,244,1610
785,176,1741
745,208,1749
613,174,1542
400,0,1188
263,-20,644
-47,3,21
-208,88,-444
-279,-21,-331
-170,-51,267
19,125,930
103,394,892
91,844,814
319,1076,1899
-138,422,2090
-221,38,1578
-216,20,1355
-58,183,979
32,343,1031
58,323,1420
193,466,1889
427,738,1826
519,743,1323
273,500,1144
-33,-100,303
-54,-518,350
-44,-600,147
0,-657,280
16,-822,278
29,-694,349
86,-445,430
139,-157,614
338,-7,993
645,-61,1550
750,-264,2089
561,-468,2066
380,-672,1650
52,-606,575
293,169,1937
269,466,1493
220,713,1312
224,1088,1414
131,1022,1268
89,808,698
-229,228,-647
-401,-32,-205
-469,-3,-190
-333,303,-167
-20,572,436
292,901,1379
331,1038,2021
260,849,2206
192,238,2469
-26,-394,1645
26,-164,1387
67,242,1247
197,438,1489
278,425,1920
340,448,1899
254,392,1473
160,226,889
-155,-58,237
-300,-394,282
-320,-438,286
-301,-378,32
-180,-95,5
-80,149,441
191,356,1107
370,597,1786
326,335,2499
150,-454,1827
95,-760,1685
124,-153,1741
198,390,1450
229,653,1559
214,710,1392
126,440,953
-98,477,812
-338,195,200
-411,126,-220
-190,269,371
73,132,736
91,222,1128
273,331,2016
17,-277,2507
24,-453,2128
241,175,1438
229,512,1261
118,595,1467
-82,637,1409
-53,881,1235
-166,302,-246
-222,101,-805
11,161,382
135,9,1276
142,89,2392
-129,-103,2725
56,-50,1762
139,416,1166
59,497,1058
-43,306,1001
-133,200,1186
-144,41,1042
-115,-110,211
2,-214,-454
131,-320,-73
137,-256,630
186,22,1816
5,-239,2852
134,-49,2194
241,445,1355
161,534,1102
88,589,781
102,446,278
126,72,-358
191,-387,-263
145,-520,61
174,-163,431
239,516,1617
48,552,2748
20,652,2273
100,996,1670
132,799,1646
136,317,1151
97,-140,370
5,-549,-456
-125,-721,-537
-101,-394,139
5,164,899
-44,446,1760
-200,96,2017
-166,-20,1900
-119,200,1494
-69,223,1331
-59,193,1552
-161,405,1413
-226,377,738
-286,265,33
-351,52,-1228
-96,571,-722
46,774,662
193,950,2159
-76,211,3355
-62,-327,2704
54,836,1358
-55,1161,414
-122,778,672
-36,271,894
-116,284,811
-209,524,-99
-54,353,-741
35,126,1078
-97,-684,2007
-130,-364,1894
-108,8,2130
-15,381,1910
-2,594,1332
-9,538,1163
-142,357,1077
-146,332,670
-219,62,-465
-139,61,-744
28,277,819
40,147,2129
-130,-365,2590
-74,-231,2489
19,573,1617
33,910,969
-72,549,827
-291,45,449
-322,-345,-320
-275,17,-509
-111,404,180
-80,45,904
-83,-227,1447
-63,-364,2131
-157,-724,2315
-71,-126,1796
-100,517,1115
-92,322,1169
-191,-67,1440
-303,-42,838
-348,271,-292
-160,531,-699
53,874,396
87,613,1892
69,225,2643
-65,-644,2374
-91,-248,2104
-58,612,1110
1,814,858
-26,436,1305
-177,174,1424
-385,272,322
-176,303,-951
70,775,-117
58,447,1680
-10,-177,2125
-28,-359,2185
-54,-531,1695
11,51,1328
-3,284,1034
-3,23,1257
-84,-134,1600
-185,-86,1186
-289,177,432
-172,542,-234
21,407,-107
79,257,995
-5,-73,2012
-72,-615,2182
-71,-565,1938
-20,-71,1432
8,291,1085
28,94,1310
-91,-114,1467
-182,-250,981
-294,-17,368
-280,628,123
-9,642,372
97,-163,660
87,-447,1234
-14,-720,2463
-79,-866,2646
154,-134,1621
30,409,1334
-44,176,1247
-291,-262,746
-364,-200,249
-367,448,-4
-51,566,-69
86,244,369
41,119,1623
-54,-693,2903
23,-1163,2744
119,-86,1980
71,739,879
-31,601,970
-322,210,970
-315,369,191
-126,630,-408
212,518,759
23,-677,1661
-65,-1120,2049
19,-702,2169
77,58,1475
99,429,1138
-72,79,1234
-208,-75,1184
-351,-56,572
-110,247,-335
68,262,-227
30,-180,775
-46,-953,2056
-50,-1058,2413
82,-461,1355
53,-41,988
-71,-63,1161
-310,49,1175
-261,601,548
9,411,-214
78,-188,427
-68,-581,1541
-29,-472,2167
-2,-428,1937
41,-151,1309
24,75,1141
17,37,1267
-73,-85,1279
-162,0,1072
-257,606,714
-124,611,51
24,-64,106
-8,-169,1041
-9,-98,1823
25,-324,1953
-26,-401,1848
72,-34,1458
71,162,1170
38,91,1250
-42,-1,1080
-151,-80,615
-306,251,484
-233,574,676
-50,-79,610
19,-704,733
-25,-682,1105
94,-498,1562
73,-547,2171
112,-309,1858
110,176,1341
-36,75,1256
-111,-94,942
-298,-5,329
-352,424,-25
-98,378,54
17,99,623
35,55,1494
23,-305,2131
33,-792,2065
78,-354,1727
5,207,1094
-8,322,992
-10,20,1052
-45,-313,1057
-203,-232,861
-306,228,655
-165,340,525
-43,-160,487
-101,-115,571
-50,326,1200
-3,193,1952
-34,-294,2167
12,-29,1808
-18,506,1070
-101,501,925
-29,343,1020
-32,148,1069
-164,206,825
-232,496,509
-183,415,456
-70,-107,703
-52,-178,953
-70,-85,1206
-64,-297,1596
62,-274,2088
119,155,1764
97,307,1292
37,326,1370
-139,155,836
-245,20,208
-404,376,159
-143,445,541
49,-161,780
43,-287,1101
54,-48,1763
62,-298,1973
58,-343,2047
81,23,1493
26,266,1118
50,195,1074
-3,-46,1093
-159,-78,863
-281,319,465
-239,454,404
-69,37,658
-21,-223,911
-8,-83,1181
3,-144,1523
43,-374,1960
55,-265,2141
221,339,1505
64,443,919
-71,293,854
-302,-191,481
-363,-105,330
-346,481,416
-14,129,661
8,-466,847
-33,-398,1170
42,-315,1655
81,-474,2132
71,-279,1944
68,117,1230
70,133,1197
-31,6,1170
-249,-62,930
-217,340,311
-205,547,154
15,173,598
27,-215,1199
64,-252,1599
47,-386,1658
84,-344,1828
61,-32,1653
78,274,1034
71,249,929
-48,57,1091
-68,-164,957
-233,-92,675
-290,219,534
-126,119,575
-64,-249,666
-41,-238,840
10,-48,1145
63,-87,1575
94,-250,1631
127,-242,1476
126,-124,1191
78,18,1163
-11,89,1149
-66,181,1054
-102,290,792
-77,239,531
-19,0,519
-14,-43,712
30,-9,896
145,-84,1266
166,-252,1748
179,-371,1835
148,-194,1592
89,-10,1411
-14,200,1073
-191,528,531
-176,542,63
18,98,338
83,-156,1021
79,-71,1392
120,-115,1760
92,-223,1822
135,-49,1448
122,114,1147
98,225,1177
30,268,1221
-33,439,1113
-171,541,470
-132,213,175
-20,-58,522
23,-66,925
58,-56,1178
101,-249,1688
144,-249,2011
196,4,1590
165,250,1401
6,491,1398
-18,599,935
-219,512,250
-151,240,-4
-24,-123,477
-8,-316,955
63,-329,1281
130,-316,1753
114,-197,1795
134,-98,1495
116,21,1327
7,219,1301
-104,433,991
-187,440,381
-107,167,76
-5,2,649
26,-4,1174
36,69,1349
71,-81,1473
91,-204,1627
56,-91,1505
124,21,1249
118,144,1368
29,300,1368
-83,316,1006
-170,290,465
-169,432,222
-71,258,294
38,-11,759
90,-101,1180
134,-311,1593
160,-587,2067
162,-416,1963
224,-54,1497
133,161,1339
-33,256,1232
-184,372,833
-236,373,170
-118,184,133
-9,-193,718
-22,-347,1104
-4,-277,1222
54,-279,1510
62,-238,1731
59,-123,1439
74,-1,1185
-9,141,1273
-128,203,1212
-160,241,922
-149,277,460
-89,-13,229
-72,-207,653
-82,-161,1088
-45,-41,1258
0,-163,1415
-8,-322,1637
0,-218,1510
67,-65,1151
22,42,1233
-101,188,1296
-194,381,1132
-239,561,598
-137,203,135
-82,-201,358
-116,-47,915
-45,267,1368
-30,129,1666
-73,-53,1802
-23,12,1487
55,220,1154
48,274,1156
1,340,1259
-77,338,1171
-165,495,954
-216,562,538
-116,107,275
-61,-164,643
-56,47,1129
-57,207,1480
-82,90,1603
-70,-60,1493
-54,-44,1263
6,96,1150
-18,199,1229
-56,263,1328
-127,349,1214
-180,499,909
-177,422,472
-136,-96,332
-157,-162,801
-145,139,1165
-137,269,1414
-172,34,1487
-164,-37,1399
-117,45,1017
-62,145,813
-37,159,855
-81,191,1034
-145,175,1061
-228,148,1070
-270,203,782
-167,126,555
-95,60,674
-59,143,1016
-52,209,1420
-58,6,1609
-20,-240,1602
29,-176,1679
120,-25,1446
78,-23,1347
-111,95,1263
-239,215,720
-296,376,179
-214,322,63
-121,-25,562
-71,-145,957
35,-18,1242
77,-18,1602
107,-182,1900
57,-172,1815
98,2,1217
43,33,930
-48,-17,878
-156,50,906
-233,420,808
-146,511,559
1,-11,678
8,-319,1067
19,-261,1315
39,-358,1568
138,-564,1990
237,-281,2110
264,194,1406
20,219,948
-237,-52,531
-325,-364,263
-290,34,377
-225,357,716
-120,167,771
13,-53,858
103,-132,1071
151,-202,1518
159,-671,2020
140,-959,2317
199,-418,1921
131,71,1327
-5,167,1107
-143,-94,727
-244,-204,410
-304,230,465
-198,476,606
-40,-38,738
4,-449,854
13,-398,1176
32,-403,1555
46,-445,1989
25,-198,1797
52,107,1119
1,12,909
-108,-118,890
-199,-200,739
-291,128,667
-212,499,601
-91,238,622
-16,-143,970
6,-300,1346
-2,-442,1597
51,-429,1865
15,-171,1723
83,89,1098
-19,14,969
-93,19,961
-176,80,776
-243,394,641
-176,518,681
-29,14,717
-6,-294,912
1,-236,1264
28,-314,1740
30,-340,1967
77,-95,1475
37,5,1051
-27,-24,1028
-131,-63,894
-233,184,746
-242,616,515
-90,343,413
0,-139,848
4,-340,1324
66,-564,1768
94,-472,1973
111,-61,1432
68,58,1049
-55,-57,1042
-172,-76,966
-272,270,666
-192,490,334
-4,123,542
4,-299,1024
-13,-589,1426
67,-664,1901
79,-329,1748
79,-11,1120
26,-23,1034
-122,-130,1158
-241,69,1122
-233,605,667
-70,310,160
-44,-214,682
-130,-239,1476
-108,-190,1557
-32,-234,1409
-95,-119,1501
-98,192,1300
-105,372,952
-96,338,825
-111,125,752
-166,-2,769
-280,135,649
-239,203,624
-52,-18,721
-26,-199,885
-33,-308,1195
100,-445,1907
72,-415,2221
131,-20,1379
46,120,1127
-53,108,1175
-153,96,938
-215,355,534
-121,299,233
-48,-60,701
-108,-250,1176
-112,-147,1276
-61,-101,1360
-65,-101,1559
-79,54,1449
-45,211,1048
-38,239,999
-86,205,1035
-162,134,886
-272,417,655
-228,486,267
-43,195,539
-45,0,1202
-76,-3,1715
-49,-226,1926
-81,-157,1929
-19,233,1174
-53,335,931
-65,282,1077
-108,174,1092
-136,184,913
-180,353,598
-189,255,336
-149,-49,489
-144,-111,928
-100,-113,1233
-77,-274,1599
-17,-200,2030
-13,78,1496
31,120,1058
-127,103,1120
-246,52,909
-215,88,574
-212,270,295
-133,182,369
-124,-176,698
-88,-377,1090
-6,-445,1477
5,-318,1862
-38,-132,1728
52,-86,1250
-29,107,1147
-180,289,1121
-214,509,851
-173,492,332
-69,21,194
-94,-203,911
-78,-96,1500
-49,-114,1584
-83,-246,1618
-72,-162,1580
3,19,1267
30,176,1133
-57,178,1197
-156,218,1022
-269,296,603
-273,411,312
-100,247,331
-17,-38,864
-2,-24,1451
-52,-41,1767
-23,-218,1810
-34,-149,1562
-17,76,1161
-12,160,991
-62,132,1088
-167,403,1168
-236,1070,939
-118,823,247
4,-226,317
-127,-249,1283
-97,268,1898
-155,219,1791
-204,204,1325
-144,271,904
-55,296,865
-11,227,1109
-91,213,1218
-143,333,1063
-265,655,632
-263,485,72
-96,161,309
-25,100,1140
-33,155,1890
-85,-77,1985
-71,-166,1695
-45,102,1191
-18,265,946
-31,197,1057
-89,297,1185
-198,621,1015
-155,767,408
-50,152,221
-54,-119,751
-50,-65,1294
-22,-116,1820
-73,-100,1741
25,126,1244
69,134,961
-39,103,1039
-224,431,985
-216,560,526
-88,151,325
10,-65,807
-17,-100,1206
13,-10,1415
48,-35,1311
93,-90,1232
166,-226,1200
164,-233,1279
154,-171,1274
73,14,1246
-118,250,1106
-246,549,843
-73,630,449
206,375,654
237,205,1372
167,106,2011
71,-271,2072
80,-276,1697
117,59,1102
93,251,818
13,200,805
-58,132,881
-160,192,941
-249,382,784
-140,304,459
-50,18,436
-63,-61,851
-30,21,1313
-43,-122,1663
1,-174,1818
73,17,1571
112,113,1067
60,110,973
-35,28,1016
-122,-19,896
-200,137,752
-134,336,615
-35,173,487
37,-18,808
46,-5,1294
42,-113,1687
46,-366,1815
85,-276,1656
121,38,1297
76,190,1029
-62,227,963
-158,219,978
-227,419,753
-152,433,420
-46,81,497
-29,-120,1028
-42,-47,1388
-47,-177,1493
-12,-384,1558
9,-209,1538
40,85,1163
-10,181,928
-61,132,934
-142,124,975
-217,450,841
-150,561,462
-17,201,501
21,11,1122
-3,71,1579
-14,-147,1674
4,-342,1825
42,-95,1466
81,166,1038
36,112,952
-85,49,1042
-195,264,1068
-225,747,751
-64,422,254
13,-50,724
-29,-84,1490
-42,-50,1805
-39,-317,1611
-27,-200,1497
3,92,1101
0,168,851
-20,38,891
-125,-97,1026
-252,267,1050
-235,791,598
-24,550,313
47,91,822
-2,46,1695
-70,-206,2116
-10,-584,2034
71,-34,1863
183,552,1316
106,482,1185
-162,141,1129
-364,-74,545
-330,342,-25
-66,729,-122
80,332,617
2,42,1496
4,-273,1937
55,-724,2016
89,-504,1882
71,85,1592
71,374,1187
-32,273,1103
-185,237,1092
-267,453,616
-146,611,-128
75,369,257
-11,-12,1262
-26,-130,1937
-20,-364,2074
-10,-164,1739
5,284,1339
23,432,1156
-83,440,1248
-122,342,1066
-208,518,698
-184,489,-98
-83,44,-44
-91,-71,872
-55,-68,1606
-83,-352,2075
-91,-311,1912
1,86,1330
-48,170,1064
-115,110,1094
-198,133,953
-241,369,449
-161,455,102
-68,172,550
-71,-215,1179
-62,-490,1639
-7,-843,1994
77,-513,2359
188,339,1630
-14,309,1159
-259,41,827
-391,1,251
-273,524,-213
-1,773,28
87,371,941
25,-37,1852
0,-764,2467
7,-950,2380
97,41,1611
99,428,1015
-12,214,1118
-167,-5,1225
-271,-25,715
-271,512,140
-107,784,-106
85,261,661
26,-90,1638
84,-424,2180
34,-698,2244
134,-107,1776
113,417,1267
42,384,1167
-82,182,1109
-228,286,950
-274,798,242
-123,739,-198
107,117,546
10,28,1831
-45,-106,2325
-33,-289,1950
-12,125,1498
-20,434,1006
-38,342,966
-27,86,1103
-77,-23,1155
-223,263,755
-268,854,19
-50,751,63
128,417,1053
60,343,2059
21,-206,2473
-79,-468,2226
59,286,1369
16,664,867
-53,612,1057
-73,523,1264
-134,505,970
-171,736,179
-136,480,-174
-29,162,551
-56,114,1348
-70,131,1648
-61,-161,1765
-122,-88,1654
-10,203,1323
21,266,1217
-26,332,1355
-88,340,1202
-200,565,811
-204,792,203
-32,394,227
14,-4,913
-23,26,1725
-55,-301,1954
-15,-533,1834
28,-191,1547
64,68,1429
62,122,1585
-68,145,1567
-196,60,783
-195,198,159
-219,570,75
-192,375,339
-95,-35,876
-58,-459,1316
-28,-880,1884
29,-1090,1937
82,-574,1704
-17,-65,1296
-118,-98,1004
-151,-321,666
-244,-133,572
-276,444,384
-177,627,270
-49,263,863
23,23,1435
80,21,1610
109,-132,1625
107,-324,1894
55,-277,1805
59,86,1367
47,331,1338
15,364,1255
-54,221,1063
-201,38,586
-318,204,145
-283,430,80
-106,377,722
2,60,1189
34,-121,1352
49,-236,1667
52,-336,2105
5,-118,1896
55,177,1433
28,355,1281
-45,377,1208
-108,261,911
-193,214,447
-242,365,266
-159,363,462
-72,14,830
-67,-111,1115
-58,-30,1398
-48,-162,1698
-102,-351,1922
-5,-120,1705
29,306,1317
-54,298,1266
-178,183,770
-299,-23,-78
-293,197,-127
-223,466,594
-96,202,1126
18,-55,1330
45,-191,1507
58,-373,1914
62,-473,2151
97,-160,1758
100,314,1564
33,365,1429
-65,247,1084
-241,122,315
-292,319,-240
-208,481,193
-75,65,845
-5,-202,1177
0,-164,1344
57,-260,1669
48,-359,2000
40,-160,1673
50,154,1240
-36,144,1067
-130,3,909
-241,96,582
-223,506,231
-59,424,307
-4,2,999
-53,-244,1518
-22,-462,1769
21,-514,1872
27,-220,1624
76,174,1310
1,146,1156
-79,-56,1144
-178,-76,764
-286,59,405
-197,372,348
-109,169,384
-35,-71,783
11,-136,1174
43,-232,1536
35,-417,1885
63,-513,1702
95,-221,1426
42,-17,1170
-10,-10,1100
-149,136,1047
-214,444,755
-151,685,358
-46,363,342
-12,66,721
36,134,1226
71,73,1752
26,-259,2129
53,-185,1929
125,168,1490
127,383,1410
84,307,1337
7,84,1214
-174,52,677
-327,375,106
-238,647,86
-13,159,483
50,-167,1135
28,-197,1580
46,-492,1966
76,-684,2244
156,-106,1782
107,337,1263
-34,213,1131
-165,2,901
-264,6,244
-233,317,21
-113,382,463
-59,-76,860
-55,-471,1135
-24,-642,1397
43,-646,1811
61,-388,1846
106,-140,1427
46,-77,1277
-81,-137,1184
-197,-49,730
-302,204,240
-250,674,224
-73,352,513
38,-246,1006
26,-494,1522
22,-578,1929
75,-592,2124
155,-279,1793
152,96,1569
48,107,1372
-126,-137,1086
-225,-156,454
-347,189,-27
-242,667,70
-95,203,360
-42,-272,908
-52,-576,1300
25,-934,1749
176,-1038,2464
222,-154,2232
155,234,1426
-107,-71,1205
-330,-300,441
-289,33,-202
-284,457,-359
-124,442,295
-45,70,893
24,-136,1347
74,-404,1712
101,-822,1950
100,-730,2116
120,-78,1613
18,193,1093
-30,20,1009
-133,-230,893
-194,-286,538
-265,145,459
-166,409,419
-16,-35,622
14,-458,1036
19,-701,1396
124,-873,1669
171,-675,1930
209,-283,1543
124,-263,1405
-54,-336,1246
-218,-38,680
-284,429,178
-182,676,117
0,237,497
43,-87,1234
49,-439,1665
71,-837,1882
91,-715,1875
